Timestamp,DeviceName,Mac,AX,AY,AZ,GX,GY,GZ,AngX,AngY,AngZ,HX,HY,HZ,Electric,Temp
2025-12-11 22:43:19.066,WT901BLE67,90856446-A74E-F462-0152-8475C1E77738,1.952,-0.448,0.532,4.578,9.644,-0.732,37.787,-28.125,139.839,0,0,0,0,30.78
2025-12-11 22:43:19.067,WT901BLE67,90856446-A74E-F462-0152-8475C1E77738,1.939,-0.464,0.417,-1.038,-16.479,-14.709,38.282,-27.933,139.543,0,0,0,0,30.78
2025-12-11 22:43:19.067,WT901BLE67,90856446-A74E-F462-0152-8475C1E77738,1.970,-0.465,0.427,4.028,-10.620,-10.620,38.177,-27.894,139.790,0,0,0,0,30.78
2025-12-11 22:43:19.067,WT901BLE67,90856446-A74E-F462-0152-8475C1E77738,1.968,-0.483,0.436,0.000,-17.334,-6.958,38.677,-28.312,138.587,0,0,0,0,30.78
2025-12-11 22:43:19.067,WT901BLE67,90856446-A74E-F462-0152-8475C1E77738,1.968,-0.483,0.436,0.000,-17.334,-6.958,38.677,-28.312,138.587,0,0,0,0,30.78
2025-12-11 22:43:19.070,WT901BLE67,90856446-A74E-F462-0152-8475C1E77738,1.968,-0.483,0.436,0.000,-17.334,-6.958,38.677,-28.312,138.587,0,0,0,0,30.78
2025-12-11 22:43:19.073,WT901BLE67,90856446-A74E-F462-0152-8475C1E77738,1.968,-0.483,0.436,0.000,-17.334,-6.958,38.677,-28.312,138.587,0,0,0,0,30.78
2025-12-11 22:43:19.079,WT901BLE67,90856446-A74E-F462-0152-8475C1E77738,1.968,-0.483,0.436,0.000,-17.334,-6.958,38.677,-28.312,138.587,0,0,0,0,30.78
2025-12-11 22:43:19.079,WT901BLE67,90856446-A74E-F462-0152-8475C1E77738,1.922,-0.488,0.438,1.404,-21.912,-8.667,38.589,-28.218,138.774,0,0,0,0,30.78
2025-12-11 22:43:19.079,WT901BLE67,90856446-A74E-F462-0152-8475C1E77738,1.934,-0.502,0.491,1.404,-6.409,6.165,38.798,-28.630,138.411,0,0,0,0,30.78
2025-12-11 22:43:19.083,WT901BLE67,90856446-A74E-F462-0152-8475C1E77738,1.934,-0.502,0.491,1.404,-6.409,6.165,38.798,-28.630,138.411,0,0,0,0,30.78
2025-12-11 22:43:19.089,WT901BLE67,90856446-A74E-F462-0152-8475C1E77738,1.934,-0.502,0.491,1.404,-6.409,6.165,38.798,-28.630,138.411,0,0,0,0,30.78
2025-12-11 22:43:19.094,WT901BLE67,90856446-A74E-F462-0152-8475C1E77738,1.934,-0.502,0.491,1.404,-6.409,6.165,38.798,-28.630,138.411,0,0,0,0,30.78
2025-12-11 22:43:19.099,WT901BLE67,90856446-A74E-F462-0152-8475C1E77738,1.934,-0.502,0.491,1.404,-6.409,6.165,38.798,-28.630,138.411,0,0,0,0,30.78
2025-12-11 22:43:19.104,WT901BLE67,90856446-A74E-F462-0152-8475C1E77738,1.934,-0.502,0.491,1.404,-6.409,6.165,38.798,-28.630,138.411,0,0,0,0,30.78
2025-12-11 22:43:19.108,WT901BLE67,90856446-A74E-F462-0152-8475C1E77738,1.934,-0.502,0.491,1.404,-6.409,6.165,38.798,-28.630,138.411,0,0,0,0,30.78
2025-12-11 22:43:19.110,WT901BLE67,90856446-A74E-F462-0152-8475C1E77738,1.886,-0.501,0.474,0.793,-6.470,4.395,38.793,-28.542,138.400,0,0,0,0,30.78
2025-12-11 22:43:19.110,WT901BLE67,90856446-A74E-F462-0152-8475C1E77738,1.894,-0.493,0.504,2.319,-4.578,9.399,38.793,-29.015,138.609,0,0,0,0,30.78
2025-12-11 22:43:19.114,WT901BLE67,90856446-A74E-F462-0152-8475C1E77738,1.894,-0.493,0.504,2.319,-4.578,9.399,38.793,-29.015,138.609,0,0,0,0,30.78
2025-12-11 22:43:19.119,WT901BLE67,90856446-A74E-F462-0152-8475C1E77738,1.894,-0.493,0.504,2.319,-4.578,9.399,38.793,-29.015,138.609,0,0,0,0,30.78
2025-12-11 22:43:19.124,WT901BLE67,90856446-A74E-F462-0152-8475C1E77738,1.894,-0.493,0.504,2.319,-4.578,9.399,38.793,-29.015,138.609,0,0,0,0,30.78
2025-12-11 22:43:19.128,WT901BLE67,90856446-A74E-F462-0152-8475C1E77738,1.894,-0.493,0.504,2.319,-4.578,9.399,38.793,-29.015,138.609,0,0,0,0,30.78
2025-12-11 22:43:19.134,WT901BLE67,90856446-A74E-F462-0152-8475C1E77738,1.894,-0.493,0.504,2.319,-4.578,9.399,38.793,-29.015,138.609,0,0,0,0,30.78
2025-12-11 22:43:19.139,WT901BLE67,90856446-A74E-F462-0152-8475C1E77738,1.894,-0.493,0.504,2.319,-4.578,9.399,38.793,-29.015,138.609,0,0,0,0,30.78
2025-12-11 22:43:19.144,WT901BLE67,90856446-A74E-F462-0152-8475C1E77738,1.894,-0.493,0.504,2.319,-4.578,9.399,38.793,-29.015,138.609,0,0,0,0,30.78
2025-12-11 22:43:19.149,WT901BLE67,90856446-A74E-F462-0152-8475C1E77738,1.894,-0.493,0.504,2.319,-4.578,9.399,38.793,-29.015,138.609,0,0,0,0,30.78
2025-12-11 22:43:19.154,WT901BLE67,90856446-A74E-F462-0152-8475C1E77738,1.894,-0.493,0.504,2.319,-4.578,9.399,38.793,-29.015,138.609,0,0,0,0,30.78
2025-12-11 22:43:19.158,WT901BLE67,90856446-A74E-F462-0152-8475C1E77738,1.894,-0.493,0.504,2.319,-4.578,9.399,38.793,-29.015,138.609,0,0,0,0,30.78
2025-12-11 22:43:19.164,WT901BLE67,90856446-A74E-F462-0152-8475C1E77738,1.894,-0.493,0.504,2.319,-4.578,9.399,38.793,-29.015,138.609,0,0,0,0,30.78
2025-12-11 22:43:19.169,WT901BLE67,90856446-A74E-F462-0152-8475C1E77738,1.894,-0.493,0.504,2.319,-4.578,9.399,38.793,-29.015,138.609,0,0,0,0,30.78
2025-12-11 22:43:19.170,WT901BLE67,90856446-A74E-F462-0152-8475C1E77738,1.879,-0.496,0.505,1.892,-2.747,10.010,38.798,-28.922,138.560,0,0,0,0,30.78
2025-12-11 22:43:19.170,WT901BLE67,90856446-A74E-F462-0152-8475C1E77738,1.875,-0.479,0.477,4.517,-6.653,7.019,38.963,-29.482,138.532,0,0,0,0,30.78
2025-12-11 22:43:19.174,WT901BLE67,90856446-A74E-F462-0152-8475C1E77738,1.875,-0.479,0.477,4.517,-6.653,7.019,38.963,-29.482,138.532,0,0,0,0,30.78
2025-12-11 22:43:19.179,WT901BLE67,90856446-A74E-F462-0152-8475C1E77738,1.875,-0.479,0.477,4.517,-6.653,7.019,38.963,-29.482,138.532,0,0,0,0,30.78
2025-12-11 22:43:19.184,WT901BLE67,90856446-A74E-F462-0152-8475C1E77738,1.875,-0.479,0.477,4.517,-6.653,7.019,38.963,-29.482,138.532,0,0,0,0,30.78
2025-12-11 22:43:19.189,WT901BLE67,90856446-A74E-F462-0152-8475C1E77738,1.875,-0.479,0.477,4.517,-6.653,7.019,38.963,-29.482,138.532,0,0,0,0,30.78
2025-12-11 22:43:19.194,WT901BLE67,90856446-A74E-F462-0152-8475C1E77738,1.875,-0.479,0.477,4.517,-6.653,7.019,38.963,-29.482,138.532,0,0,0,0,30.78
2025-12-11 22:43:19.199,WT901BLE67,90856446-A74E-F462-0152-8475C1E77738,1.875,-0.479,0.477,4.517,-6.653,7.019,38.963,-29.482,138.532,0,0,0,0,30.78
2025-12-11 22:43:19.201,WT901BLE67,90856446-A74E-F462-0152-8475C1E77738,1.901,-0.487,0.489,4.150,-11.902,4.944,38.925,-29.383,138.521,0,0,0,0,30.78
2025-12-11 22:43:19.201,WT901BLE67,90856446-A74E-F462-0152-8475C1E77738,1.902,-0.465,0.462,1.282,2.197,5.005,38.936,-29.658,138.812,0,0,0,0,30.78
2025-12-11 22:43:19.204,WT901BLE67,90856446-A74E-F462-0152-8475C1E77738,1.902,-0.465,0.462,1.282,2.197,5.005,38.936,-29.658,138.812,0,0,0,0,30.78
2025-12-11 22:43:19.209,WT901BLE67,90856446-A74E-F462-0152-8475C1E77738,1.902,-0.465,0.462,1.282,2.197,5.005,38.936,-29.658,138.812,0,0,0,0,30.78
2025-12-11 22:43:19.214,WT901BLE67,90856446-A74E-F462-0152-8475C1E77738,1.902,-0.465,0.462,1.282,2.197,5.005,38.936,-29.658,138.812,0,0,0,0,30.78
2025-12-11 22:43:19.219,WT901BLE67,90856446-A74E-F462-0152-8475C1E77738,1.902,-0.465,0.462,1.282,2.197,5.005,38.936,-29.658,138.812,0,0,0,0,30.78
2025-12-11 22:43:19.224,WT901BLE67,90856446-A74E-F462-0152-8475C1E77738,1.902,-0.465,0.462,1.282,2.197,5.005,38.936,-29.658,138.812,0,0,0,0,30.78
2025-12-11 22:43:19.229,WT901BLE67,90856446-A74E-F462-0152-8475C1E77738,1.902,-0.465,0.462,1.282,2.197,5.005,38.936,-29.658,138.812,0,0,0,0,30.78
2025-12-11 22:43:19.231,WT901BLE67,90856446-A74E-F462-0152-8475C1E77738,1.906,-0.476,0.468,2.991,0.488,7.507,38.952,-29.641,138.752,0,0,0,0,30.78
2025-12-11 22:43:19.231,WT901BLE67,90856446-A74E-F462-0152-8475C1E77738,1.898,-0.456,0.438,1.160,-8.301,0.732,38.919,-29.756,138.829,0,0,0,0,30.78
2025-12-11 22:43:19.234,WT901BLE67,90856446-A74E-F462-0152-8475C1E77738,1.898,-0.456,0.438,1.160,-8.301,0.732,38.919,-29.756,138.829,0,0,0,0,30.78
2025-12-11 22:43:19.239,WT901BLE67,90856446-A74E-F462-0152-8475C1E77738,1.898,-0.456,0.438,1.160,-8.301,0.732,38.919,-29.756,138.829,0,0,0,0,30.78
2025-12-11 22:43:19.244,WT901BLE67,90856446-A74E-F462-0152-8475C1E77738,1.898,-0.456,0.438,1.160,-8.301,0.732,38.919,-29.756,138.829,0,0,0,0,30.78
2025-12-11 22:43:19.249,WT901BLE67,90856446-A74E-F462-0152-8475C1E77738,1.898,-0.456,0.438,1.160,-8.301,0.732,38.919,-29.756,138.829,0,0,0,0,30.78
2025-12-11 22:43:19.254,WT901BLE67,90856446-A74E-F462-0152-8475C1E77738,1.898,-0.456,0.438,1.160,-8.301,0.732,38.919,-29.756,138.829,0,0,0,0,30.78
2025-12-11 22:43:19.259,WT901BLE67,90856446-A74E-F462-0152-8475C1E77738,1.898,-0.456,0.438,1.160,-8.301,0.732,38.919,-29.756,138.829,0,0,0,0,30.78
2025-12-11 22:43:19.264,WT901BLE67,90856446-A74E-F462-0152-8475C1E77738,1.898,-0.456,0.438,1.160,-8.301,0.732,38.919,-29.756,138.829,0,0,0,0,30.78
2025-12-11 22:43:19.269,WT901BLE67,90856446-A74E-F462-0152-8475C1E77738,1.898,-0.456,0.438,1.160,-8.301,0.732,38.919,-29.756,138.829,0,0,0,0,30.78
2025-12-11 22:43:19.274,WT901BLE67,90856446-A74E-F462-0152-8475C1E77738,1.898,-0.456,0.438,1.160,-8.301,0.732,38.919,-29.756,138.829,0,0,0,0,30.78
2025-12-11 22:43:19.279,WT901BLE67,90856446-A74E-F462-0152-8475C1E77738,1.898,-0.456,0.438,1.160,-8.301,0.732,38.919,-29.756,138.829,0,0,0,0,30.78
2025-12-11 22:43:19.284,WT901BLE67,90856446-A74E-F462-0152-8475C1E77738,1.898,-0.456,0.438,1.160,-8.301,0.732,38.919,-29.756,138.829,0,0,0,0,30.78
2025-12-11 22:43:19.289,WT901BLE67,90856446-A74E-F462-0152-8475C1E77738,1.898,-0.456,0.438,1.160,-8.301,0.732,38.919,-29.756,138.829,0,0,0,0,30.78
2025-12-11 22:43:19.292,WT901BLE67,90856446-A74E-F462-0152-8475C1E77738,1.913,-0.467,0.450,1.343,-3.784,2.197,38.886,-29.685,138.878,0,0,0,0,30.78
2025-12-11 22:43:19.292,WT901BLE67,90856446-A74E-F462-0152-8475C1E77738,1.907,-0.455,0.442,-0.854,-5.371,0.916,39.084,-30.064,138.505,0,0,0,0,30.78
2025-12-11 22:43:19.294,WT901BLE67,90856446-A74E-F462-0152-8475C1E77738,1.907,-0.455,0.442,-0.854,-5.371,0.916,39.084,-30.064,138.505,0,0,0,0,30.78
2025-12-11 22:43:19.299,WT901BLE67,90856446-A74E-F462-0152-8475C1E77738,1.907,-0.455,0.442,-0.854,-5.371,0.916,39.084,-30.064,138.505,0,0,0,0,30.78
2025-12-11 22:43:19.304,WT901BLE67,90856446-A74E-F462-0152-8475C1E77738,1.907,-0.455,0.442,-0.854,-5.371,0.916,39.084,-30.064,138.505,0,0,0,0,30.78
2025-12-11 22:43:19.309,WT901BLE67,90856446-A74E-F462-0152-8475C1E77738,1.907,-0.455,0.442,-0.854,-5.371,0.916,39.084,-30.064,138.505,0,0,0,0,30.78
2025-12-11 22:43:19.313,WT901BLE67,90856446-A74E-F462-0152-8475C1E77738,1.907,-0.455,0.442,-0.854,-5.371,0.916,39.084,-30.064,138.505,0,0,0,0,30.78
2025-12-11 22:43:19.318,WT901BLE67,90856446-A74E-F462-0152-8475C1E77738,1.904,-0.465,0.444,1.343,-11.597,-0.977,39.073,-30.015,138.538,0,0,0,0,30.78
2025-12-11 22:43:19.318,WT901BLE67,90856446-A74E-F462-0152-8475C1E77738,1.910,-0.474,0.473,-2.991,-6.409,-0.122,39.018,-30.218,138.444,0,0,0,0,30.78
2025-12-11 22:43:19.319,WT901BLE67,90856446-A74E-F462-0152-8475C1E77738,1.910,-0.474,0.473,-2.991,-6.409,-0.122,39.018,-30.218,138.444,0,0,0,0,30.78
2025-12-11 22:43:19.324,WT901BLE67,90856446-A74E-F462-0152-8475C1E77738,1.910,-0.474,0.473,-2.991,-6.409,-0.122,39.018,-30.218,138.444,0,0,0,0,30.78
2025-12-11 22:43:19.329,WT901BLE67,90856446-A74E-F462-0152-8475C1E77738,1.910,-0.474,0.473,-2.991,-6.409,-0.122,39.018,-30.218,138.444,0,0,0,0,30.78
2025-12-11 22:43:19.334,WT901BLE67,90856446-A74E-F462-0152-8475C1E77738,1.910,-0.474,0.473,-2.991,-6.409,-0.122,39.018,-30.218,138.444,0,0,0,0,30.78
2025-12-11 22:43:19.339,WT901BLE67,90856446-A74E-F462-0152-8475C1E77738,1.910,-0.474,0.473,-2.991,-6.409,-0.122,39.018,-30.218,138.444,0,0,0,0,30.78
2025-12-11 22:43:19.343,WT901BLE67,90856446-A74E-F462-0152-8475C1E77738,1.910,-0.474,0.473,-2.991,-6.409,-0.122,39.018,-30.218,138.444,0,0,0,0,30.78
2025-12-11 22:43:19.349,WT901BLE67,90856446-A74E-F462-0152-8475C1E77738,1.910,-0.474,0.473,-2.991,-6.409,-0.122,39.018,-30.218,138.444,0,0,0,0,30.78
2025-12-11 22:43:19.349,WT901BLE67,90856446-A74E-F462-0152-8475C1E77738,1.887,-0.479,0.476,-2.197,-4.639,1.465,39.029,-30.168,138.494,0,0,0,0,30.78
2025-12-11 22:43:19.349,WT901BLE67,90856446-A74E-F462-0152-8475C1E77738,1.894,-0.480,0.479,-5.066,8.606,-1.160,38.853,-30.157,138.378,0,0,0,0,30.78
2025-12-11 22:43:19.354,WT901BLE67,90856446-A74E-F462-0152-8475C1E77738,1.894,-0.480,0.479,-5.066,8.606,-1.160,38.853,-30.157,138.378,0,0,0,0,30.78
2025-12-11 22:43:19.359,WT901BLE67,90856446-A74E-F462-0152-8475C1E77738,1.894,-0.480,0.479,-5.066,8.606,-1.160,38.853,-30.157,138.378,0,0,0,0,30.78
2025-12-11 22:43:19.364,WT901BLE67,90856446-A74E-F462-0152-8475C1E77738,1.894,-0.480,0.479,-5.066,8.606,-1.160,38.853,-30.157,138.378,0,0,0,0,30.78
2025-12-11 22:43:19.369,WT901BLE67,90856446-A74E-F462-0152-8475C1E77738,1.894,-0.480,0.479,-5.066,8.606,-1.160,38.853,-30.157,138.378,0,0,0,0,30.78
2025-12-11 22:43:19.374,WT901BLE67,90856446-A74E-F462-0152-8475C1E77738,1.894,-0.480,0.479,-5.066,8.606,-1.160,38.853,-30.157,138.378,0,0,0,0,30.78
2025-12-11 22:43:19.379,WT901BLE67,90856446-A74E-F462-0152-8475C1E77738,1.894,-0.480,0.479,-5.066,8.606,-1.160,38.853,-30.157,138.378,0,0,0,0,30.78
2025-12-11 22:43:19.384,WT901BLE67,90856446-A74E-F462-0152-8475C1E77738,1.894,-0.480,0.479,-5.066,8.606,-1.160,38.853,-30.157,138.378,0,0,0,0,30.78
2025-12-11 22:43:19.389,WT901BLE67,90856446-A74E-F462-0152-8475C1E77738,1.894,-0.480,0.479,-5.066,8.606,-1.160,38.853,-30.157,138.378,0,0,0,0,30.78
2025-12-11 22:43:19.394,WT901BLE67,90856446-A74E-F462-0152-8475C1E77738,1.894,-0.480,0.479,-5.066,8.606,-1.160,38.853,-30.157,138.378,0,0,0,0,30.78
2025-12-11 22:43:19.399,WT901BLE67,90856446-A74E-F462-0152-8475C1E77738,1.894,-0.480,0.479,-5.066,8.606,-1.160,38.853,-30.157,138.378,0,0,0,0,30.78
2025-12-11 22:43:19.404,WT901BLE67,90856446-A74E-F462-0152-8475C1E77738,1.894,-0.480,0.479,-5.066,8.606,-1.160,38.853,-30.157,138.378,0,0,0,0,30.78
2025-12-11 22:43:19.408,WT901BLE67,90856446-A74E-F462-0152-8475C1E77738,1.918,-0.473,0.477,-5.432,2.380,-2.136,38.930,-30.234,138.329,0,0,0,0,30.78
2025-12-11 22:43:19.408,WT901BLE67,90856446-A74E-F462-0152-8475C1E77738,1.910,-0.486,0.463,-3.479,17.151,-1.099,38.540,-29.696,138.801,0,0,0,0,30.78
2025-12-11 22:43:19.408,WT901BLE67,90856446-A74E-F462-0152-8475C1E77738,1.910,-0.486,0.463,-3.479,17.151,-1.099,38.540,-29.696,138.801,0,0,0,0,30.78
2025-12-11 22:43:19.414,WT901BLE67,90856446-A74E-F462-0152-8475C1E77738,1.910,-0.486,0.463,-3.479,17.151,-1.099,38.540,-29.696,138.801,0,0,0,0,30.78
2025-12-11 22:43:19.419,WT901BLE67,90856446-A74E-F462-0152-8475C1E77738,1.910,-0.486,0.463,-3.479,17.151,-1.099,38.540,-29.696,138.801,0,0,0,0,30.78
2025-12-11 22:43:19.424,WT901BLE67,90856446-A74E-F462-0152-8475C1E77738,1.910,-0.486,0.463,-3.479,17.151,-1.099,38.540,-29.696,138.801,0,0,0,0,30.78
2025-12-11 22:43:19.461,WT901BLE67,90856446-A74E-F462-0152-8475C1E77738,1.940,-0.477,0.460,-1.343,15.381,0.305,38.633,-29.839,138.686,0,0,0,0,30.78
2025-12-11 22:43:19.461,WT901BLE67,90856446-A74E-F462-0152-8475C1E77738,1.939,-0.501,0.463,-11.902,127.197,23.315,37.101,-27.554,141.207,0,0,0,0,30.78
2025-12-11 22:43:19.461,WT901BLE67,90856446-A74E-F462-0152-8475C1E77738,1.939,-0.501,0.463,-11.902,127.197,23.315,37.101,-27.554,141.207,0,0,0,0,30.78
2025-12-11 22:43:19.464,WT901BLE67,90856446-A74E-F462-0152-8475C1E77738,1.939,-0.501,0.463,-11.902,127.197,23.315,37.101,-27.554,141.207,0,0,0,0,30.78
2025-12-11 22:43:19.468,WT901BLE67,90856446-A74E-F462-0152-8475C1E77738,1.939,-0.501,0.463,-11.902,127.197,23.315,37.101,-27.554,141.207,0,0,0,0,30.78
2025-12-11 22:43:19.474,WT901BLE67,90856446-A74E-F462-0152-8475C1E77738,1.939,-0.501,0.463,-11.902,127.197,23.315,37.101,-27.554,141.207,0,0,0,0,30.78
2025-12-11 22:43:19.479,WT901BLE67,90856446-A74E-F462-0152-8475C1E77738,1.939,-0.501,0.463,-11.902,127.197,23.315,37.101,-27.554,141.207,0,0,0,0,30.78
2025-12-11 22:43:19.484,WT901BLE67,90856446-A74E-F462-0152-8475C1E77738,1.939,-0.501,0.463,-11.902,127.197,23.315,37.101,-27.554,141.207,0,0,0,0,30.78
2025-12-11 22:43:19.489,WT901BLE67,90856446-A74E-F462-0152-8475C1E77738,1.939,-0.501,0.463,-11.902,127.197,23.315,37.101,-27.554,141.207,0,0,0,0,30.78
2025-12-11 22:43:19.494,WT901BLE67,90856446-A74E-F462-0152-8475C1E77738,1.939,-0.501,0.463,-11.902,127.197,23.315,37.101,-27.554,141.207,0,0,0,0,30.78
2025-12-11 22:43:19.498,WT901BLE67,90856446-A74E-F462-0152-8475C1E77738,1.904,-0.504,0.472,-6.287,89.233,12.268,37.716,-28.411,140.147,0,0,0,0,30.78
2025-12-11 22:43:19.498,WT901BLE67,90856446-A74E-F462-0152-8475C1E77738,1.917,-0.461,0.522,30.457,114.319,-1.953,35.771,-23.763,145.052,0,0,0,0,30.78
2025-12-11 22:43:19.499,WT901BLE67,90856446-A74E-F462-0152-8475C1E77738,1.917,-0.461,0.522,30.457,114.319,-1.953,35.771,-23.763,145.052,0,0,0,0,30.78
2025-12-11 22:43:19.504,WT901BLE67,90856446-A74E-F462-0152-8475C1E77738,1.917,-0.461,0.522,30.457,114.319,-1.953,35.771,-23.763,145.052,0,0,0,0,30.78
2025-12-11 22:43:19.509,WT901BLE67,90856446-A74E-F462-0152-8475C1E77738,1.917,-0.461,0.522,30.457,114.319,-1.953,35.771,-23.763,145.052,0,0,0,0,30.78
2025-12-11 22:43:19.514,WT901BLE67,90856446-A74E-F462-0152-8475C1E77738,1.917,-0.461,0.522,30.457,114.319,-1.953,35.771,-23.763,145.052,0,0,0,0,30.78
2025-12-11 22:43:19.519,WT901BLE67,90856446-A74E-F462-0152-8475C1E77738,1.917,-0.461,0.522,30.457,114.319,-1.953,35.771,-23.763,145.052,0,0,0,0,30.78
2025-12-11 22:43:19.524,WT901BLE67,90856446-A74E-F462-0152-8475C1E77738,1.917,-0.461,0.522,30.457,114.319,-1.953,35.771,-23.763,145.052,0,0,0,0,30.78
2025-12-11 22:43:19.529,WT901BLE67,90856446-A74E-F462-0152-8475C1E77738,1.917,-0.461,0.522,30.457,114.319,-1.953,35.771,-23.763,145.052,0,0,0,0,30.78
2025-12-11 22:43:19.534,WT901BLE67,90856446-A74E-F462-0152-8475C1E77738,1.917,-0.461,0.522,30.457,114.319,-1.953,35.771,-23.763,145.052,0,0,0,0,30.78
2025-12-11 22:43:19.539,WT901BLE67,90856446-A74E-F462-0152-8475C1E77738,1.917,-0.461,0.522,30.457,114.319,-1.953,35.771,-23.763,145.052,0,0,0,0,30.78
2025-12-11 22:43:19.544,WT901BLE67,90856446-A74E-F462-0152-8475C1E77738,1.917,-0.461,0.522,30.457,114.319,-1.953,35.771,-23.763,145.052,0,0,0,0,30.78
2025-12-11 22:43:19.549,WT901BLE67,90856446-A74E-F462-0152-8475C1E77738,1.917,-0.461,0.522,30.457,114.319,-1.953,35.771,-23.763,145.052,0,0,0,0,30.78
2025-12-11 22:43:19.554,WT901BLE67,90856446-A74E-F462-0152-8475C1E77738,1.917,-0.461,0.522,30.457,114.319,-1.953,35.771,-23.763,145.052,0,0,0,0,30.78
2025-12-11 22:43:19.559,WT901BLE67,90856446-A74E-F462-0152-8475C1E77738,1.917,-0.461,0.522,30.457,114.319,-1.953,35.771,-23.763,145.052,0,0,0,0,30.78
2025-12-11 22:43:19.564,WT901BLE67,90856446-A74E-F462-0152-8475C1E77738,1.917,-0.461,0.522,30.457,114.319,-1.953,35.771,-23.763,145.052,0,0,0,0,30.78
2025-12-11 22:43:19.569,WT901BLE67,90856446-A74E-F462-0152-8475C1E77738,1.917,-0.461,0.522,30.457,114.319,-1.953,35.771,-23.763,145.052,0,0,0,0,30.78
2025-12-11 22:43:19.574,WT901BLE67,90856446-A74E-F462-0152-8475C1E77738,1.917,-0.461,0.522,30.457,114.319,-1.953,35.771,-23.763,145.052,0,0,0,0,30.78
2025-12-11 22:43:19.579,WT901BLE67,90856446-A74E-F462-0152-8475C1E77738,1.917,-0.461,0.522,30.457,114.319,-1.953,35.771,-23.763,145.052,0,0,0,0,30.78
2025-12-11 22:43:19.584,WT901BLE67,90856446-A74E-F462-0152-8475C1E77738,1.917,-0.461,0.522,30.457,114.319,-1.953,35.771,-23.763,145.052,0,0,0,0,30.78
2025-12-11 22:43:19.588,WT901BLE67,90856446-A74E-F462-0152-8475C1E77738,1.917,-0.461,0.522,30.457,114.319,-1.953,35.771,-23.763,145.052,0,0,0,0,30.78
2025-12-11 22:43:19.593,WT901BLE67,90856446-A74E-F462-0152-8475C1E77738,1.917,-0.461,0.522,30.457,114.319,-1.953,35.771,-23.763,145.052,0,0,0,0,30.78
2025-12-11 22:43:19.599,WT901BLE67,90856446-A74E-F462-0152-8475C1E77738,1.917,-0.461,0.522,30.457,114.319,-1.953,35.771,-23.763,145.052,0,0,0,0,30.78
2025-12-11 22:43:19.604,WT901BLE67,90856446-A74E-F462-0152-8475C1E77738,1.917,-0.461,0.522,30.457,114.319,-1.953,35.771,-23.763,145.052,0,0,0,0,30.78
2025-12-11 22:43:19.609,WT901BLE67,90856446-A74E-F462-0152-8475C1E77738,1.917,-0.461,0.522,30.457,114.319,-1.953,35.771,-23.763,145.052,0,0,0,0,30.78
2025-12-11 22:43:19.614,WT901BLE67,90856446-A74E-F462-0152-8475C1E77738,1.917,-0.461,0.522,30.457,114.319,-1.953,35.771,-23.763,145.052,0,0,0,0,30.78
2025-12-11 22:43:19.619,WT901BLE67,90856446-A74E-F462-0152-8475C1E77738,1.917,-0.461,0.522,30.457,114.319,-1.953,35.771,-23.763,145.052,0,0,0,0,30.78
2025-12-11 22:43:19.624,WT901BLE67,90856446-A74E-F462-0152-8475C1E77738,1.917,-0.461,0.522,30.457,114.319,-1.953,35.771,-23.763,145.052,0,0,0,0,30.78
2025-12-11 22:43:19.629,WT901BLE67,90856446-A74E-F462-0152-8475C1E77738,1.917,-0.461,0.522,30.457,114.319,-1.953,35.771,-23.763,145.052,0,0,0,0,30.78
2025-12-11 22:43:19.634,WT901BLE67,90856446-A74E-F462-0152-8475C1E77738,1.917,-0.461,0.522,30.457,114.319,-1.953,35.771,-23.763,145.052,0,0,0,0,30.78
2025-12-11 22:43:19.639,WT901BLE67,90856446-A74E-F462-0152-8475C1E77738,1.917,-0.461,0.522,30.457,114.319,-1.953,35.771,-23.763,145.052,0,0,0,0,30.78
2025-12-11 22:43:19.643,WT901BLE67,90856446-A74E-F462-0152-8475C1E77738,1.917,-0.461,0.522,30.457,114.319,-1.953,35.771,-23.763,145.052,0,0,0,0,30.78
2025-12-11 22:43:19.649,WT901BLE67,90856446-A74E-F462-0152-8475C1E77738,1.917,-0.461,0.522,30.457,114.319,-1.953,35.771,-23.763,145.052,0,0,0,0,30.78
2025-12-11 22:43:19.654,WT901BLE67,90856446-A74E-F462-0152-8475C1E77738,1.917,-0.461,0.522,30.457,114.319,-1.953,35.771,-23.763,145.052,0,0,0,0,30.78
2025-12-11 22:43:19.659,WT901BLE67,90856446-A74E-F462-0152-8475C1E77738,1.917,-0.461,0.522,30.457,114.319,-1.953,35.771,-23.763,145.052,0,0,0,0,30.78
2025-12-11 22:43:19.664,WT901BLE67,90856446-A74E-F462-0152-8475C1E77738,1.917,-0.461,0.522,30.457,114.319,-1.953,35.771,-23.763,145.052,0,0,0,0,30.78
2025-12-11 22:43:19.669,WT901BLE67,90856446-A74E-F462-0152-8475C1E77738,1.917,-0.461,0.522,30.457,114.319,-1.953,35.771,-23.763,145.052,0,0,0,0,30.78
2025-12-11 22:43:19.674,WT901BLE67,90856446-A74E-F462-0152-8475C1E77738,1.917,-0.461,0.522,30.457,114.319,-1.953,35.771,-23.763,145.052,0,0,0,0,30.78
2025-12-11 22:43:19.679,WT901BLE67,90856446-A74E-F462-0152-8475C1E77738,1.917,-0.461,0.522,30.457,114.319,-1.953,35.771,-23.763,145.052,0,0,0,0,30.78
2025-12-11 22:43:19.691,WT901BLE67,90856446-A74E-F462-0152-8475C1E77738,1.917,-0.461,0.522,30.457,114.319,-1.953,35.771,-23.763,145.052,0,0,0,0,30.78
2025-12-11 22:43:19.695,WT901BLE67,90856446-A74E-F462-0152-8475C1E77738,1.917,-0.461,0.522,30.457,114.319,-1.953,35.771,-23.763,145.052,0,0,0,0,30.78
2025-12-11 22:43:19.699,WT901BLE67,90856446-A74E-F462-0152-8475C1E77738,1.917,-0.461,0.522,30.457,114.319,-1.953,35.771,-23.763,145.052,0,0,0,0,30.78
2025-12-11 22:43:19.704,WT901BLE67,90856446-A74E-F462-0152-8475C1E77738,1.917,-0.461,0.522,30.457,114.319,-1.953,35.771,-23.763,145.052,0,0,0,0,30.78
2025-12-11 22:43:19.709,WT901BLE67,90856446-A74E-F462-0152-8475C1E77738,1.917,-0.461,0.522,30.457,114.319,-1.953,35.771,-23.763,145.052,0,0,0,0,30.78
2025-12-11 22:43:19.711,WT901BLE67,90856446-A74E-F462-0152-8475C1E77738,1.800,-0.469,0.559,23.682,115.234,7.019,35.766,-24.692,144.327,0,0,0,0,30.78
2025-12-11 22:43:19.711,WT901BLE67,90856446-A74E-F462-0152-8475C1E77738,1.782,-0.561,0.654,-34.546,46.753,25.879,33.964,-22.335,147.129,0,0,0,0,30.78
2025-12-11 22:43:19.711,WT901BLE67,90856446-A74E-F462-0152-8475C1E77738,1.843,-0.544,0.687,-39.795,62.134,25.391,34.514,-22.593,146.607,0,0,0,0,30.78
2025-12-11 22:43:19.711,WT901BLE67,90856446-A74E-F462-0152-8475C1E77738,1.824,-0.561,0.624,-47.424,3.906,21.118,31.679,-22.083,148.607,0,0,0,0,30.78
2025-12-11 22:43:19.714,WT901BLE67,90856446-A74E-F462-0152-8475C1E77738,1.824,-0.561,0.624,-47.424,3.906,21.118,31.679,-22.083,148.607,0,0,0,0,30.78
2025-12-11 22:43:19.719,WT901BLE67,90856446-A74E-F462-0152-8475C1E77738,1.824,-0.561,0.624,-47.424,3.906,21.118,31.679,-22.083,148.607,0,0,0,0,30.78
2025-12-11 22:43:19.724,WT901BLE67,90856446-A74E-F462-0152-8475C1E77738,1.824,-0.561,0.624,-47.424,3.906,21.118,31.679,-22.083,148.607,0,0,0,0,30.78
2025-12-11 22:43:19.728,WT901BLE67,90856446-A74E-F462-0152-8475C1E77738,1.824,-0.561,0.624,-47.424,3.906,21.118,31.679,-22.083,148.607,0,0,0,0,30.78
2025-12-11 22:43:19.734,WT901BLE67,90856446-A74E-F462-0152-8475C1E77738,1.824,-0.561,0.624,-47.424,3.906,21.118,31.679,-22.083,148.607,0,0,0,0,30.78
2025-12-11 22:43:19.739,WT901BLE67,90856446-A74E-F462-0152-8475C1E77738,1.824,-0.561,0.624,-47.424,3.906,21.118,31.679,-22.083,148.607,0,0,0,0,30.78
2025-12-11 22:43:19.742,WT901BLE67,90856446-A74E-F462-0152-8475C1E77738,1.817,-0.550,0.593,-44.617,15.747,29.114,32.239,-22.006,148.381,-13.427,-1.66,-8.98,0,30.78
2025-12-11 22:43:19.744,WT901BLE67,90856446-A74E-F462-0152-8475C1E77738,1.817,-0.550,0.593,-44.617,15.747,29.114,32.239,-22.006,148.381,-13.427,-1.66,-8.98,0,30.78
2025-12-11 22:43:19.749,WT901BLE67,90856446-A74E-F462-0152-8475C1E77738,1.817,-0.550,0.593,-44.617,15.747,29.114,32.239,-22.006,148.381,-13.427,-1.66,-8.98,0,30.78
2025-12-11 22:43:19.754,WT901BLE67,90856446-A74E-F462-0152-8475C1E77738,1.817,-0.550,0.593,-44.617,15.747,29.114,32.239,-22.006,148.381,-13.427,-1.66,-8.98,0,30.78
2025-12-11 22:43:19.759,WT901BLE67,90856446-A74E-F462-0152-8475C1E77738,1.817,-0.550,0.593,-44.617,15.747,29.114,32.239,-22.006,148.381,-13.427,-1.66,-8.98,0,30.78
2025-12-11 22:43:19.764,WT901BLE67,90856446-A74E-F462-0152-8475C1E77738,1.817,-0.550,0.593,-44.617,15.747,29.114,32.239,-22.006,148.381,-13.427,-1.66,-8.98,0,30.78
2025-12-11 22:43:19.769,WT901BLE67,90856446-A74E-F462-0152-8475C1E77738,1.817,-0.550,0.593,-44.617,15.747,29.114,32.239,-22.006,148.381,-13.427,-1.66,-8.98,0,30.78
2025-12-11 22:43:19.771,WT901BLE67,90856446-A74E-F462-0152-8475C1E77738,1.882,-0.536,0.584,-45.349,-49.744,2.502,29.872,-23.302,148.085,-13.427,-1.66,-8.98,0,30.78
2025-12-11 22:43:19.771,WT901BLE67,90856446-A74E-F462-0152-8475C1E77738,1.864,-0.566,0.606,-45.776,63.599,62.622,27.169,-23.456,149.941,-13.427,-1.66,-8.98,0,30.78
2025-12-11 22:43:19.774,WT901BLE67,90856446-A74E-F462-0152-8475C1E77738,1.864,-0.566,0.606,-45.776,63.599,62.622,27.169,-23.456,149.941,-13.427,-1.66,-8.98,0,30.78
2025-12-11 22:43:19.778,WT901BLE67,90856446-A74E-F462-0152-8475C1E77738,1.864,-0.566,0.606,-45.776,63.599,62.622,27.169,-23.456,149.941,-13.427,-1.66,-8.98,0,30.78
2025-12-11 22:43:19.784,WT901BLE67,90856446-A74E-F462-0152-8475C1E77738,1.864,-0.566,0.606,-45.776,63.599,62.622,27.169,-23.456,149.941,-13.427,-1.66,-8.98,0,30.78
2025-12-11 22:43:19.789,WT901BLE67,90856446-A74E-F462-0152-8475C1E77738,1.864,-0.566,0.606,-45.776,63.599,62.622,27.169,-23.456,149.941,-13.427,-1.66,-8.98,0,30.78
2025-12-11 22:43:19.794,WT901BLE67,90856446-A74E-F462-0152-8475C1E77738,1.864,-0.566,0.606,-45.776,63.599,62.622,27.169,-23.456,149.941,-13.427,-1.66,-8.98,0,30.78
2025-12-11 22:43:19.799,WT901BLE67,90856446-A74E-F462-0152-8475C1E77738,1.864,-0.566,0.606,-45.776,63.599,62.622,27.169,-23.456,149.941,-13.427,-1.66,-8.98,0,30.78
2025-12-11 22:43:19.801,WT901BLE67,90856446-A74E-F462-0152-8475C1E77738,1.688,-0.597,0.582,-46.814,29.724,50.293,27.988,-23.714,149.035,-13.427,-1.66,-8.98,0,30.78
2025-12-11 22:43:19.801,WT901BLE67,90856446-A74E-F462-0152-8475C1E77738,1.650,-0.600,0.567,-39.490,9.399,26.489,24.911,-22.709,152.194,-13.427,-1.66,-8.98,0,30.78
2025-12-11 22:43:19.804,WT901BLE67,90856446-A74E-F462-0152-8475C1E77738,1.650,-0.600,0.567,-39.490,9.399,26.489,24.911,-22.709,152.194,-13.427,-1.66,-8.98,0,30.78
2025-12-11 22:43:19.809,WT901BLE67,90856446-A74E-F462-0152-8475C1E77738,1.650,-0.600,0.567,-39.490,9.399,26.489,24.911,-22.709,152.194,-13.427,-1.66,-8.98,0,30.78
2025-12-11 22:43:19.814,WT901BLE67,90856446-A74E-F462-0152-8475C1E77738,1.650,-0.600,0.567,-39.490,9.399,26.489,24.911,-22.709,152.194,-13.427,-1.66,-8.98,0,30.78
2025-12-11 22:43:19.819,WT901BLE67,90856446-A74E-F462-0152-8475C1E77738,1.650,-0.600,0.567,-39.490,9.399,26.489,24.911,-22.709,152.194,-13.427,-1.66,-8.98,0,30.78
2025-12-11 22:43:19.824,WT901BLE67,90856446-A74E-F462-0152-8475C1E77738,1.650,-0.600,0.567,-39.490,9.399,26.489,24.911,-22.709,152.194,-13.427,-1.66,-8.98,0,30.78
2025-12-11 22:43:19.829,WT901BLE67,90856446-A74E-F462-0152-8475C1E77738,1.650,-0.600,0.567,-39.490,9.399,26.489,24.911,-22.709,152.194,-13.427,-1.66,-8.98,0,30.78
2025-12-11 22:43:19.834,WT901BLE67,90856446-A74E-F462-0152-8475C1E77738,1.650,-0.600,0.567,-39.490,9.399,26.489,24.911,-22.709,152.194,-13.427,-1.66,-8.98,0,30.78
2025-12-11 22:43:19.839,WT901BLE67,90856446-A74E-F462-0152-8475C1E77738,1.650,-0.600,0.567,-39.490,9.399,26.489,24.911,-22.709,152.194,-13.427,-1.66,-8.98,0,30.78
2025-12-11 22:43:19.844,WT901BLE67,90856446-A74E-F462-0152-8475C1E77738,1.650,-0.600,0.567,-39.490,9.399,26.489,24.911,-22.709,152.194,-13.427,-1.66,-8.98,0,30.78
2025-12-11 22:43:19.849,WT901BLE67,90856446-A74E-F462-0152-8475C1E77738,1.650,-0.600,0.567,-39.490,9.399,26.489,24.911,-22.709,152.194,-13.427,-1.66,-8.98,0,30.78
2025-12-11 22:43:19.854,WT901BLE67,90856446-A74E-F462-0152-8475C1E77738,1.650,-0.600,0.567,-39.490,9.399,26.489,24.911,-22.709,152.194,-13.427,-1.66,-8.98,0,30.78
2025-12-11 22:43:19.859,WT901BLE67,90856446-A74E-F462-0152-8475C1E77738,1.715,-0.538,0.546,-32.288,22.827,29.724,25.428,-22.692,151.875,-13.427,-1.66,-8.98,0,30.78
2025-12-11 22:43:19.859,WT901BLE67,90856446-A74E-F462-0152-8475C1E77738,1.805,-0.571,0.513,-18.677,-75.439,3.784,23.170,-23.703,153.138,-13.427,-1.66,-8.98,0,30.78
2025-12-11 22:43:19.859,WT901BLE67,90856446-A74E-F462-0152-8475C1E77738,1.805,-0.571,0.513,-18.677,-75.439,3.784,23.170,-23.703,153.138,-13.427,-1.66,-8.98,0,30.78
2025-12-11 22:43:19.864,WT901BLE67,90856446-A74E-F462-0152-8475C1E77738,1.805,-0.571,0.513,-18.677,-75.439,3.784,23.170,-23.703,153.138,-13.427,-1.66,-8.98,0,30.78
2025-12-11 22:43:19.869,WT901BLE67,90856446-A74E-F462-0152-8475C1E77738,1.805,-0.571,0.513,-18.677,-75.439,3.784,23.170,-23.703,153.138,-13.427,-1.66,-8.98,0,30.78
2025-12-11 22:43:19.874,WT901BLE67,90856446-A74E-F462-0152-8475C1E77738,1.805,-0.571,0.513,-18.677,-75.439,3.784,23.170,-23.703,153.138,-13.427,-1.66,-8.98,0,30.78
2025-12-11 22:43:19.878,WT901BLE67,90856446-A74E-F462-0152-8475C1E77738,1.805,-0.571,0.513,-18.677,-75.439,3.784,23.170,-23.703,153.138,-13.427,-1.66,-8.98,0,30.78
2025-12-11 22:43:19.884,WT901BLE67,90856446-A74E-F462-0152-8475C1E77738,1.805,-0.571,0.513,-18.677,-75.439,3.784,23.170,-23.703,153.138,-13.427,-1.66,-8.98,0,30.78
2025-12-11 22:43:19.889,WT901BLE67,90856446-A74E-F462-0152-8475C1E77738,1.805,-0.571,0.513,-18.677,-75.439,3.784,23.170,-23.703,153.138,-13.427,-1.66,-8.98,0,30.78
2025-12-11 22:43:19.889,WT901BLE67,90856446-A74E-F462-0152-8475C1E77738,1.718,-0.563,0.492,-21.423,-29.663,23.376,23.231,-22.994,153.408,-13.427,-1.66,-8.98,0,30.78
2025-12-11 22:43:19.889,WT901BLE67,90856446-A74E-F462-0152-8475C1E77738,1.731,-0.615,0.613,-35.095,-36.987,-0.732,21.984,-24.505,153.441,-13.427,-1.66,-8.98,0,30.78
2025-12-11 22:43:19.894,WT901BLE67,90856446-A74E-F462-0152-8475C1E77738,1.731,-0.615,0.613,-35.095,-36.987,-0.732,21.984,-24.505,153.441,-13.427,-1.66,-8.98,0,30.78
2025-12-11 22:43:19.899,WT901BLE67,90856446-A74E-F462-0152-8475C1E77738,1.731,-0.615,0.613,-35.095,-36.987,-0.732,21.984,-24.505,153.441,-13.427,-1.66,-8.98,0,30.78
2025-12-11 22:43:19.904,WT901BLE67,90856446-A74E-F462-0152-8475C1E77738,1.731,-0.615,0.613,-35.095,-36.987,-0.732,21.984,-24.505,153.441,-13.427,-1.66,-8.98,0,30.78
2025-12-11 22:43:19.909,WT901BLE67,90856446-A74E-F462-0152-8475C1E77738,1.731,-0.615,0.613,-35.095,-36.987,-0.732,21.984,-24.505,153.441,-13.427,-1.66,-8.98,0,30.78
2025-12-11 22:43:19.914,WT901BLE67,90856446-A74E-F462-0152-8475C1E77738,1.731,-0.615,0.613,-35.095,-36.987,-0.732,21.984,-24.505,153.441,-13.427,-1.66,-8.98,0,30.78
2025-12-11 22:43:19.919,WT901BLE67,90856446-A74E-F462-0152-8475C1E77738,1.731,-0.615,0.613,-35.095,-36.987,-0.732,21.984,-24.505,153.441,-13.427,-1.66,-8.98,0,30.78
2025-12-11 22:43:19.921,WT901BLE67,90856446-A74E-F462-0152-8475C1E77738,1.738,-0.597,0.544,-40.649,6.348,5.798,22.280,-24.192,153.589,-13.427,-1.66,-8.98,0,30.78
2025-12-11 22:43:19.921,WT901BLE67,90856446-A74E-F462-0152-8475C1E77738,1.755,-0.719,0.634,-88.867,-16.235,-32.104,19.742,-25.252,151.578,-13.427,-1.66,-8.98,0,30.78
2025-12-11 22:43:19.924,WT901BLE67,90856446-A74E-F462-0152-8475C1E77738,1.755,-0.719,0.634,-88.867,-16.235,-32.104,19.742,-25.252,151.578,-13.427,-1.66,-8.98,0,30.78
2025-12-11 22:43:19.929,WT901BLE67,90856446-A74E-F462-0152-8475C1E77738,1.755,-0.719,0.634,-88.867,-16.235,-32.104,19.742,-25.252,151.578,-13.427,-1.66,-8.98,0,30.78
2025-12-11 22:43:19.934,WT901BLE67,90856446-A74E-F462-0152-8475C1E77738,1.755,-0.719,0.634,-88.867,-16.235,-32.104,19.742,-25.252,151.578,-13.427,-1.66,-8.98,0,30.78
2025-12-11 22:43:19.939,WT901BLE67,90856446-A74E-F462-0152-8475C1E77738,1.755,-0.719,0.634,-88.867,-16.235,-32.104,19.742,-25.252,151.578,-13.427,-1.66,-8.98,0,30.78
2025-12-11 22:43:19.944,WT901BLE67,90856446-A74E-F462-0152-8475C1E77738,1.755,-0.719,0.634,-88.867,-16.235,-32.104,19.742,-25.252,151.578,-13.427,-1.66,-8.98,0,30.78
2025-12-11 22:43:19.949,WT901BLE67,90856446-A74E-F462-0152-8475C1E77738,1.755,-0.719,0.634,-88.867,-16.235,-32.104,19.742,-25.252,151.578,-13.427,-1.66,-8.98,0,30.78
2025-12-11 22:43:19.954,WT901BLE67,90856446-A74E-F462-0152-8475C1E77738,1.755,-0.719,0.634,-88.867,-16.235,-32.104,19.742,-25.252,151.578,-13.427,-1.66,-8.98,0,30.78
2025-12-11 22:43:19.959,WT901BLE67,90856446-A74E-F462-0152-8475C1E77738,1.755,-0.719,0.634,-88.867,-16.235,-32.104,19.742,-25.252,151.578,-13.427,-1.66,-8.98,0,30.78
2025-12-11 22:43:19.964,WT901BLE67,90856446-A74E-F462-0152-8475C1E77738,1.755,-0.719,0.634,-88.867,-16.235,-32.104,19.742,-25.252,151.578,-13.427,-1.66,-8.98,0,30.78
2025-12-11 22:43:19.969,WT901BLE67,90856446-A74E-F462-0152-8475C1E77738,1.755,-0.719,0.634,-88.867,-16.235,-32.104,19.742,-25.252,151.578,-13.427,-1.66,-8.98,0,30.78
2025-12-11 22:43:19.974,WT901BLE67,90856446-A74E-F462-0152-8475C1E77738,1.755,-0.719,0.634,-88.867,-16.235,-32.104,19.742,-25.252,151.578,-13.427,-1.66,-8.98,0,30.78
2025-12-11 22:43:19.978,WT901BLE67,90856446-A74E-F462-0152-8475C1E77738,1.751,-0.518,0.875,-63.416,-7.935,-47.852,20.468,-25.181,151.974,-13.427,-1.66,-8.98,0,30.78
2025-12-11 22:43:19.978,WT901BLE67,90856446-A74E-F462-0152-8475C1E77738,1.735,-0.663,0.581,-87.036,72.327,90.393,14.881,-23.917,155.050,-13.427,-1.66,-8.98,0,30.78
2025-12-11 22:43:19.979,WT901BLE67,90856446-A74E-F462-0152-8475C1E77738,1.735,-0.663,0.581,-87.036,72.327,90.393,14.881,-23.917,155.050,-13.427,-1.66,-8.98,0,30.78
2025-12-11 22:43:19.984,WT901BLE67,90856446-A74E-F462-0152-8475C1E77738,1.735,-0.663,0.581,-87.036,72.327,90.393,14.881,-23.917,155.050,-13.427,-1.66,-8.98,0,30.78
2025-12-11 22:43:19.989,WT901BLE67,90856446-A74E-F462-0152-8475C1E77738,1.735,-0.663,0.581,-87.036,72.327,90.393,14.881,-23.917,155.050,-13.427,-1.66,-8.98,0,30.78
2025-12-11 22:43:19.994,WT901BLE67,90856446-A74E-F462-0152-8475C1E77738,1.735,-0.663,0.581,-87.036,72.327,90.393,14.881,-23.917,155.050,-13.427,-1.66,-8.98,0,30.78
2025-12-11 22:43:19.999,WT901BLE67,90856446-A74E-F462-0152-8475C1E77738,1.735,-0.663,0.581,-87.036,72.327,90.393,14.881,-23.917,155.050,-13.427,-1.66,-8.98,0,30.78
2025-12-11 22:43:20.004,WT901BLE67,90856446-A74E-F462-0152-8475C1E77738,1.735,-0.663,0.581,-87.036,72.327,90.393,14.881,-23.917,155.050,-13.427,-1.66,-8.98,0,30.78
2025-12-11 22:43:20.009,WT901BLE67,90856446-A74E-F462-0152-8475C1E77738,1.774,-0.701,0.607,-87.646,75.867,84.290,16.227,-24.379,153.885,-13.427,-1.66,-8.98,0,30.78
2025-12-11 22:43:20.009,WT901BLE67,90856446-A74E-F462-0152-8475C1E77738,2.505,-0.766,0.845,17.273,-10.803,-95.154,12.849,-23.714,155.242,-13.427,-1.66,-8.98,0,30.78
2025-12-11 22:43:20.009,WT901BLE67,90856446-A74E-F462-0152-8475C1E77738,2.505,-0.766,0.845,17.273,-10.803,-95.154,12.849,-23.714,155.242,-13.427,-1.66,-8.98,0,30.78
2025-12-11 22:43:20.014,WT901BLE67,90856446-A74E-F462-0152-8475C1E77738,2.505,-0.766,0.845,17.273,-10.803,-95.154,12.849,-23.714,155.242,-13.427,-1.66,-8.98,0,30.78
2025-12-11 22:43:20.019,WT901BLE67,90856446-A74E-F462-0152-8475C1E77738,2.505,-0.766,0.845,17.273,-10.803,-95.154,12.849,-23.714,155.242,-13.427,-1.66,-8.98,0,30.78
2025-12-11 22:43:20.024,WT901BLE67,90856446-A74E-F462-0152-8475C1E77738,2.505,-0.766,0.845,17.273,-10.803,-95.154,12.849,-23.714,155.242,-13.427,-1.66,-8.98,0,30.78
2025-12-11 22:43:20.030,WT901BLE67,90856446-A74E-F462-0152-8475C1E77738,2.505,-0.766,0.845,17.273,-10.803,-95.154,12.849,-23.714,155.242,-13.427,-1.66,-8.98,0,30.78
2025-12-11 22:43:20.033,WT901BLE67,90856446-A74E-F462-0152-8475C1E77738,2.505,-0.766,0.845,17.273,-10.803,-95.154,12.849,-23.714,155.242,-13.427,-1.66,-8.98,0,30.78
2025-12-11 22:43:20.039,WT901BLE67,90856446-A74E-F462-0152-8475C1E77738,2.505,-0.766,0.845,17.273,-10.803,-95.154,12.849,-23.714,155.242,-13.427,-1.66,-8.98,0,30.78
2025-12-11 22:43:20.044,WT901BLE67,90856446-A74E-F462-0152-8475C1E77738,2.505,-0.766,0.845,17.273,-10.803,-95.154,12.849,-23.714,155.242,-13.427,-1.66,-8.98,0,30.78
2025-12-11 22:43:20.049,WT901BLE67,90856446-A74E-F462-0152-8475C1E77738,2.505,-0.766,0.845,17.273,-10.803,-95.154,12.849,-23.714,155.242,-13.427,-1.66,-8.98,0,30.78
2025-12-11 22:43:20.054,WT901BLE67,90856446-A74E-F462-0152-8475C1E77738,2.505,-0.766,0.845,17.273,-10.803,-95.154,12.849,-23.714,155.242,-13.427,-1.66,-8.98,0,30.78
2025-12-11 22:43:20.059,WT901BLE67,90856446-A74E-F462-0152-8475C1E77738,2.505,-0.766,0.845,17.273,-10.803,-95.154,12.849,-23.714,155.242,-13.427,-1.66,-8.98,0,30.78
2025-12-11 22:43:20.064,WT901BLE67,90856446-A74E-F462-0152-8475C1E77738,2.505,-0.766,0.845,17.273,-10.803,-95.154,12.849,-23.714,155.242,-13.427,-1.66,-8.98,0,30.78
2025-12-11 22:43:20.068,WT901BLE67,90856446-A74E-F462-0152-8475C1E77738,1.667,-0.479,0.531,-48.523,-56.152,-61.157,12.321,-23.785,156.281,-13.427,-1.66,-8.98,0,30.78
2025-12-11 22:43:20.068,WT901BLE67,90856446-A74E-F462-0152-8475C1E77738,1.653,-0.660,0.751,-30.029,152.710,-3.357,11.799,-20.083,155.198,-13.427,-1.66,-8.98,0,30.78
2025-12-11 22:43:20.069,WT901BLE67,90856446-A74E-F462-0152-8475C1E77738,1.653,-0.660,0.751,-30.029,152.710,-3.357,11.799,-20.083,155.198,-13.427,-1.66,-8.98,0,30.78
2025-12-11 22:43:20.074,WT901BLE67,90856446-A74E-F462-0152-8475C1E77738,1.653,-0.660,0.751,-30.029,152.710,-3.357,11.799,-20.083,155.198,-13.427,-1.66,-8.98,0,30.78
2025-12-11 22:43:20.079,WT901BLE67,90856446-A74E-F462-0152-8475C1E77738,1.653,-0.660,0.751,-30.029,152.710,-3.357,11.799,-20.083,155.198,-13.427,-1.66,-8.98,0,30.78
2025-12-11 22:43:20.084,WT901BLE67,90856446-A74E-F462-0152-8475C1E77738,1.653,-0.660,0.751,-30.029,152.710,-3.357,11.799,-20.083,155.198,-13.427,-1.66,-8.98,0,30.78
2025-12-11 22:43:20.089,WT901BLE67,90856446-A74E-F462-0152-8475C1E77738,1.653,-0.660,0.751,-30.029,152.710,-3.357,11.799,-20.083,155.198,-13.427,-1.66,-8.98,0,30.78
2025-12-11 22:43:20.093,WT901BLE67,90856446-A74E-F462-0152-8475C1E77738,1.653,-0.660,0.751,-30.029,152.710,-3.357,11.799,-20.083,155.198,-13.427,-1.66,-8.98,0,30.78
2025-12-11 22:43:20.099,WT901BLE67,90856446-A74E-F462-0152-8475C1E77738,1.653,-0.660,0.751,-30.029,152.710,-3.357,11.799,-20.083,155.198,-13.427,-1.66,-8.98,0,30.78
2025-12-11 22:43:20.099,WT901BLE67,90856446-A74E-F462-0152-8475C1E77738,1.510,-0.719,0.782,-41.016,110.413,-8.850,12.211,-21.561,154.907,-13.427,-1.66,-8.98,0,30.78
2025-12-11 22:43:20.099,WT901BLE67,90856446-A74E-F462-0152-8475C1E77738,1.549,-0.676,0.641,-22.522,119.202,18.188,10.426,-14.288,156.846,-13.427,-1.66,-8.98,0,30.78
2025-12-11 22:43:20.104,WT901BLE67,90856446-A74E-F462-0152-8475C1E77738,1.549,-0.676,0.641,-22.522,119.202,18.188,10.426,-14.288,156.846,-13.427,-1.66,-8.98,0,30.78
2025-12-11 22:43:20.109,WT901BLE67,90856446-A74E-F462-0152-8475C1E77738,1.549,-0.676,0.641,-22.522,119.202,18.188,10.426,-14.288,156.846,-13.427,-1.66,-8.98,0,30.78
2025-12-11 22:43:20.114,WT901BLE67,90856446-A74E-F462-0152-8475C1E77738,1.549,-0.676,0.641,-22.522,119.202,18.188,10.426,-14.288,156.846,-13.427,-1.66,-8.98,0,30.78
2025-12-11 22:43:20.119,WT901BLE67,90856446-A74E-F462-0152-8475C1E77738,1.549,-0.676,0.641,-22.522,119.202,18.188,10.426,-14.288,156.846,-13.427,-1.66,-8.98,0,30.78
2025-12-11 22:43:20.124,WT901BLE67,90856446-A74E-F462-0152-8475C1E77738,1.549,-0.676,0.641,-22.522,119.202,18.188,10.426,-14.288,156.846,-13.427,-1.66,-8.98,0,30.78
2025-12-11 22:43:20.128,WT901BLE67,90856446-A74E-F462-0152-8475C1E77738,1.473,-0.694,0.610,-20.630,139.221,14.160,10.745,-15.430,156.440,-13.427,-1.66,-8.98,0,30.78
2025-12-11 22:43:20.128,WT901BLE67,90856446-A74E-F462-0152-8475C1E77738,1.477,-0.601,0.820,18.799,46.631,19.226,10.080,-11.190,158.231,-13.427,-1.66,-8.98,0,30.78
2025-12-11 22:43:20.129,WT901BLE67,90856446-A74E-F462-0152-8475C1E77738,1.477,-0.601,0.820,18.799,46.631,19.226,10.080,-11.190,158.231,-13.427,-1.66,-8.98,0,30.78
2025-12-11 22:43:20.134,WT901BLE67,90856446-A74E-F462-0152-8475C1E77738,1.477,-0.601,0.820,18.799,46.631,19.226,10.080,-11.190,158.231,-13.427,-1.66,-8.98,0,30.78
2025-12-11 22:43:20.139,WT901BLE67,90856446-A74E-F462-0152-8475C1E77738,1.477,-0.601,0.820,18.799,46.631,19.226,10.080,-11.190,158.231,-13.427,-1.66,-8.98,0,30.78
2025-12-11 22:43:20.144,WT901BLE67,90856446-A74E-F462-0152-8475C1E77738,1.477,-0.601,0.820,18.799,46.631,19.226,10.080,-11.190,158.231,-13.427,-1.66,-8.98,0,30.78
2025-12-11 22:43:20.149,WT901BLE67,90856446-A74E-F462-0152-8475C1E77738,1.477,-0.601,0.820,18.799,46.631,19.226,10.080,-11.190,158.231,-13.427,-1.66,-8.98,0,30.78
2025-12-11 22:43:20.154,WT901BLE67,90856446-A74E-F462-0152-8475C1E77738,1.477,-0.601,0.820,18.799,46.631,19.226,10.080,-11.190,158.231,-13.427,-1.66,-8.98,0,30.78
2025-12-11 22:43:20.159,WT901BLE67,90856446-A74E-F462-0152-8475C1E77738,1.477,-0.601,0.820,18.799,46.631,19.226,10.080,-11.190,158.231,-13.427,-1.66,-8.98,0,30.78
2025-12-11 22:43:20.164,WT901BLE67,90856446-A74E-F462-0152-8475C1E77738,1.477,-0.601,0.820,18.799,46.631,19.226,10.080,-11.190,158.231,-13.427,-1.66,-8.98,0,30.78
2025-12-11 22:43:20.169,WT901BLE67,90856446-A74E-F462-0152-8475C1E77738,1.477,-0.601,0.820,18.799,46.631,19.226,10.080,-11.190,158.231,-13.427,-1.66,-8.98,0,30.78
2025-12-11 22:43:20.174,WT901BLE67,90856446-A74E-F462-0152-8475C1E77738,1.477,-0.601,0.820,18.799,46.631,19.226,10.080,-11.190,158.231,-13.427,-1.66,-8.98,0,30.78
2025-12-11 22:43:20.179,WT901BLE67,90856446-A74E-F462-0152-8475C1E77738,1.477,-0.601,0.820,18.799,46.631,19.226,10.080,-11.190,158.231,-13.427,-1.66,-8.98,0,30.78
2025-12-11 22:43:20.184,WT901BLE67,90856446-A74E-F462-0152-8475C1E77738,1.477,-0.601,0.820,18.799,46.631,19.226,10.080,-11.190,158.231,-13.427,-1.66,-8.98,0,30.78
2025-12-11 22:43:20.188,WT901BLE67,90856446-A74E-F462-0152-8475C1E77738,1.212,-0.618,0.786,5.066,72.083,18.555,9.948,-11.629,157.956,-13.427,-1.66,-8.98,0,30.78
2025-12-11 22:43:20.188,WT901BLE67,90856446-A74E-F462-0152-8475C1E77738,1.304,-0.368,0.730,98.999,72.144,-0.183,12.881,-9.393,158.736,-13.427,-1.66,-8.98,0,30.78
2025-12-11 22:43:20.189,WT901BLE67,90856446-A74E-F462-0152-8475C1E77738,1.304,-0.368,0.730,98.999,72.144,-0.183,12.881,-9.393,158.736,-13.427,-1.66,-8.98,0,30.78
2025-12-11 22:43:20.194,WT901BLE67,90856446-A74E-F462-0152-8475C1E77738,1.304,-0.368,0.730,98.999,72.144,-0.183,12.881,-9.393,158.736,-13.427,-1.66,-8.98,0,30.78
2025-12-11 22:43:20.199,WT901BLE67,90856446-A74E-F462-0152-8475C1E77738,1.304,-0.368,0.730,98.999,72.144,-0.183,12.881,-9.393,158.736,-13.427,-1.66,-8.98,0,30.78
2025-12-11 22:43:20.204,WT901BLE67,90856446-A74E-F462-0152-8475C1E77738,1.304,-0.368,0.730,98.999,72.144,-0.183,12.881,-9.393,158.736,-13.427,-1.66,-8.98,0,30.78
2025-12-11 22:43:20.209,WT901BLE67,90856446-A74E-F462-0152-8475C1E77738,1.304,-0.368,0.730,98.999,72.144,-0.183,12.881,-9.393,158.736,-13.427,-1.66,-8.98,0,30.78
2025-12-11 22:43:20.214,WT901BLE67,90856446-A74E-F462-0152-8475C1E77738,1.304,-0.368,0.730,98.999,72.144,-0.183,12.881,-9.393,158.736,-13.427,-1.66,-8.98,0,30.78
2025-12-11 22:43:20.219,WT901BLE67,90856446-A74E-F462-0152-8475C1E77738,1.304,-0.368,0.730,98.999,72.144,-0.183,12.881,-9.393,158.736,-13.427,-1.66,-8.98,0,30.78
2025-12-11 22:43:20.224,WT901BLE67,90856446-A74E-F462-0152-8475C1E77738,1.304,-0.368,0.730,98.999,72.144,-0.183,12.881,-9.393,158.736,-13.427,-1.66,-8.98,0,30.78
2025-12-11 22:43:20.229,WT901BLE67,90856446-A74E-F462-0152-8475C1E77738,1.304,-0.368,0.730,98.999,72.144,-0.183,12.881,-9.393,158.736,-13.427,-1.66,-8.98,0,30.78
2025-12-11 22:43:20.234,WT901BLE67,90856446-A74E-F462-0152-8475C1E77738,1.304,-0.368,0.730,98.999,72.144,-0.183,12.881,-9.393,158.736,-13.427,-1.66,-8.98,0,30.78
2025-12-11 22:43:20.239,WT901BLE67,90856446-A74E-F462-0152-8475C1E77738,1.304,-0.368,0.730,98.999,72.144,-0.183,12.881,-9.393,158.736,-13.427,-1.66,-8.98,0,30.78
2025-12-11 22:43:20.244,WT901BLE67,90856446-A74E-F462-0152-8475C1E77738,1.304,-0.368,0.730,98.999,72.144,-0.183,12.881,-9.393,158.736,-13.427,-1.66,-8.98,0,30.78
2025-12-11 22:43:20.248,WT901BLE67,90856446-A74E-F462-0152-8475C1E77738,0.950,-0.492,0.889,82.581,60.120,-11.902,11.948,-10.091,158.582,-13.427,-1.66,-8.98,0,30.78
2025-12-11 22:43:20.248,WT901BLE67,90856446-A74E-F462-0152-8475C1E77738,0.825,-0.213,0.166,34.668,0.244,-61.462,16.677,-6.735,157.934,-13.427,-1.66,-8.98,0,30.78
2025-12-11 22:43:20.249,WT901BLE67,90856446-A74E-F462-0152-8475C1E77738,0.825,-0.213,0.166,34.668,0.244,-61.462,16.677,-6.735,157.934,-13.427,-1.66,-8.98,0,30.78
2025-12-11 22:43:20.254,WT901BLE67,90856446-A74E-F462-0152-8475C1E77738,0.825,-0.213,0.166,34.668,0.244,-61.462,16.677,-6.735,157.934,-13.427,-1.66,-8.98,0,30.78
2025-12-11 22:43:20.259,WT901BLE67,90856446-A74E-F462-0152-8475C1E77738,0.825,-0.213,0.166,34.668,0.244,-61.462,16.677,-6.735,157.934,-13.427,-1.66,-8.98,0,30.78
2025-12-11 22:43:20.264,WT901BLE67,90856446-A74E-F462-0152-8475C1E77738,0.825,-0.213,0.166,34.668,0.244,-61.462,16.677,-6.735,157.934,-13.427,-1.66,-8.98,0,30.78
2025-12-11 22:43:20.269,WT901BLE67,90856446-A74E-F462-0152-8475C1E77738,0.825,-0.213,0.166,34.668,0.244,-61.462,16.677,-6.735,157.934,-13.427,-1.66,-8.98,0,30.78
2025-12-11 22:43:20.274,WT901BLE67,90856446-A74E-F462-0152-8475C1E77738,0.825,-0.213,0.166,34.668,0.244,-61.462,16.677,-6.735,157.934,-13.427,-1.66,-8.98,0,30.78
2025-12-11 22:43:20.278,WT901BLE67,90856446-A74E-F462-0152-8475C1E77738,0.816,-0.301,0.227,105.469,22.400,-70.557,16.205,-6.943,158.527,-13.427,-1.66,-8.98,0,30.78
2025-12-11 22:43:20.278,WT901BLE67,90856446-A74E-F462-0152-8475C1E77738,0.868,0.155,0.036,139.893,-15.564,-100.586,20.748,-6.152,154.841,-13.427,-1.66,-8.98,0,30.78
2025-12-11 22:43:20.279,WT901BLE67,90856446-A74E-F462-0152-8475C1E77738,0.868,0.155,0.036,139.893,-15.564,-100.586,20.748,-6.152,154.841,-13.427,-1.66,-8.98,0,30.78
2025-12-11 22:43:20.284,WT901BLE67,90856446-A74E-F462-0152-8475C1E77738,0.868,0.155,0.036,139.893,-15.564,-100.586,20.748,-6.152,154.841,-13.427,-1.66,-8.98,0,30.78
2025-12-11 22:43:20.289,WT901BLE67,90856446-A74E-F462-0152-8475C1E77738,0.868,0.155,0.036,139.893,-15.564,-100.586,20.748,-6.152,154.841,-13.427,-1.66,-8.98,0,30.78
2025-12-11 22:43:20.294,WT901BLE67,90856446-A74E-F462-0152-8475C1E77738,0.868,0.155,0.036,139.893,-15.564,-100.586,20.748,-6.152,154.841,-13.427,-1.66,-8.98,0,30.78
2025-12-11 22:43:20.299,WT901BLE67,90856446-A74E-F462-0152-8475C1E77738,0.868,0.155,0.036,139.893,-15.564,-100.586,20.748,-6.152,154.841,-13.427,-1.66,-8.98,0,30.78
2025-12-11 22:43:20.304,WT901BLE67,90856446-A74E-F462-0152-8475C1E77738,0.868,0.155,0.036,139.893,-15.564,-100.586,20.748,-6.152,154.841,-13.427,-1.66,-8.98,0,30.78
2025-12-11 22:43:20.309,WT901BLE67,90856446-A74E-F462-0152-8475C1E77738,0.868,0.155,0.036,139.893,-15.564,-100.586,20.748,-6.152,154.841,-13.427,-1.66,-8.98,0,30.78
2025-12-11 22:43:20.311,WT901BLE67,90856446-A74E-F462-0152-8475C1E77738,1.100,0.116,0.035,106.812,-14.343,-85.144,19.259,-6.334,155.858,-13.427,-1.66,-8.98,0,30.78
2025-12-11 22:43:20.311,WT901BLE67,90856446-A74E-F462-0152-8475C1E77738,0.749,0.565,0.117,241.638,14.465,-131.714,29.608,-4.900,148.513,-13.427,-1.66,-8.98,0,30.78
2025-12-11 22:43:20.314,WT901BLE67,90856446-A74E-F462-0152-8475C1E77738,0.749,0.565,0.117,241.638,14.465,-131.714,29.608,-4.900,148.513,-13.427,-1.66,-8.98,0,30.78
2025-12-11 22:43:20.319,WT901BLE67,90856446-A74E-F462-0152-8475C1E77738,0.749,0.565,0.117,241.638,14.465,-131.714,29.608,-4.900,148.513,-13.427,-1.66,-8.98,0,30.78
2025-12-11 22:43:20.324,WT901BLE67,90856446-A74E-F462-0152-8475C1E77738,0.749,0.565,0.117,241.638,14.465,-131.714,29.608,-4.900,148.513,-13.427,-1.66,-8.98,0,30.78
2025-12-11 22:43:20.329,WT901BLE67,90856446-A74E-F462-0152-8475C1E77738,0.749,0.565,0.117,241.638,14.465,-131.714,29.608,-4.900,148.513,-13.427,-1.66,-8.98,0,30.78
2025-12-11 22:43:20.334,WT901BLE67,90856446-A74E-F462-0152-8475C1E77738,0.749,0.565,0.117,241.638,14.465,-131.714,29.608,-4.900,148.513,-13.427,-1.66,-8.98,0,30.78
2025-12-11 22:43:20.338,WT901BLE67,90856446-A74E-F462-0152-8475C1E77738,1.080,0.410,0.015,209.717,-73.242,-189.087,27.114,-5.652,149.700,-13.427,-1.66,-8.98,0,30.78
2025-12-11 22:43:20.338,WT901BLE67,90856446-A74E-F462-0152-8475C1E77738,1.064,0.671,0.708,325.623,50.964,-306.763,41.885,2.379,142.278,-13.427,-1.66,-8.98,0,30.78
2025-12-11 22:43:20.339,WT901BLE67,90856446-A74E-F462-0152-8475C1E77738,1.064,0.671,0.708,325.623,50.964,-306.763,41.885,2.379,142.278,-13.427,-1.66,-8.98,0,30.78
2025-12-11 22:43:20.344,WT901BLE67,90856446-A74E-F462-0152-8475C1E77738,1.064,0.671,0.708,325.623,50.964,-306.763,41.885,2.379,142.278,-13.427,-1.66,-8.98,0,30.78
2025-12-11 22:43:20.349,WT901BLE67,90856446-A74E-F462-0152-8475C1E77738,1.064,0.671,0.708,325.623,50.964,-306.763,41.885,2.379,142.278,-13.427,-1.66,-8.98,0,30.78
2025-12-11 22:43:20.354,WT901BLE67,90856446-A74E-F462-0152-8475C1E77738,1.064,0.671,0.708,325.623,50.964,-306.763,41.885,2.379,142.278,-13.427,-1.66,-8.98,0,30.78
2025-12-11 22:43:20.359,WT901BLE67,90856446-A74E-F462-0152-8475C1E77738,1.064,0.671,0.708,325.623,50.964,-306.763,41.885,2.379,142.278,-13.427,-1.66,-8.98,0,30.78
2025-12-11 22:43:20.364,WT901BLE67,90856446-A74E-F462-0152-8475C1E77738,1.064,0.671,0.708,325.623,50.964,-306.763,41.885,2.379,142.278,-13.427,-1.66,-8.98,0,30.78
2025-12-11 22:43:20.369,WT901BLE67,90856446-A74E-F462-0152-8475C1E77738,1.064,0.671,0.708,325.623,50.964,-306.763,41.885,2.379,142.278,-13.427,-1.66,-8.98,0,30.78
2025-12-11 22:43:20.369,WT901BLE67,90856446-A74E-F462-0152-8475C1E77738,1.592,0.684,0.544,331.909,28.687,-249.756,38.655,0.154,144.338,-13.427,-1.66,-8.98,0,30.78
2025-12-11 22:43:20.369,WT901BLE67,90856446-A74E-F462-0152-8475C1E77738,1.512,0.791,0.790,262.817,-69.153,-386.536,51.652,11.794,130.693,-13.427,-1.66,-8.98,0,30.78
2025-12-11 22:43:20.374,WT901BLE67,90856446-A74E-F462-0152-8475C1E77738,1.512,0.791,0.790,262.817,-69.153,-386.536,51.652,11.794,130.693,-13.427,-1.66,-8.98,0,30.78
2025-12-11 22:43:20.379,WT901BLE67,90856446-A74E-F462-0152-8475C1E77738,1.512,0.791,0.790,262.817,-69.153,-386.536,51.652,11.794,130.693,-13.427,-1.66,-8.98,0,30.78
2025-12-11 22:43:20.384,WT901BLE67,90856446-A74E-F462-0152-8475C1E77738,1.512,0.791,0.790,262.817,-69.153,-386.536,51.652,11.794,130.693,-13.427,-1.66,-8.98,0,30.78
2025-12-11 22:43:20.389,WT901BLE67,90856446-A74E-F462-0152-8475C1E77738,1.512,0.791,0.790,262.817,-69.153,-386.536,51.652,11.794,130.693,-13.427,-1.66,-8.98,0,30.78
2025-12-11 22:43:20.394,WT901BLE67,90856446-A74E-F462-0152-8475C1E77738,1.512,0.791,0.790,262.817,-69.153,-386.536,51.652,11.794,130.693,-13.427,-1.66,-8.98,0,30.78
2025-12-11 22:43:20.399,WT901BLE67,90856446-A74E-F462-0152-8475C1E77738,1.512,0.791,0.790,262.817,-69.153,-386.536,51.652,11.794,130.693,-13.427,-1.66,-8.98,0,30.78
2025-12-11 22:43:20.404,WT901BLE67,90856446-A74E-F462-0152-8475C1E77738,1.512,0.791,0.790,262.817,-69.153,-386.536,51.652,11.794,130.693,-13.427,-1.66,-8.98,0,30.78
2025-12-11 22:43:20.409,WT901BLE67,90856446-A74E-F462-0152-8475C1E77738,1.512,0.791,0.790,262.817,-69.153,-386.536,51.652,11.794,130.693,-13.427,-1.66,-8.98,0,30.78
2025-12-11 22:43:20.414,WT901BLE67,90856446-A74E-F462-0152-8475C1E77738,1.512,0.791,0.790,262.817,-69.153,-386.536,51.652,11.794,130.693,-13.427,-1.66,-8.98,0,30.78
2025-12-11 22:43:20.419,WT901BLE67,90856446-A74E-F462-0152-8475C1E77738,1.512,0.791,0.790,262.817,-69.153,-386.536,51.652,11.794,130.693,-13.427,-1.66,-8.98,0,30.78
2025-12-11 22:43:20.424,WT901BLE67,90856446-A74E-F462-0152-8475C1E77738,1.512,0.791,0.790,262.817,-69.153,-386.536,51.652,11.794,130.693,-13.427,-1.66,-8.98,0,30.78
2025-12-11 22:43:20.429,WT901BLE67,90856446-A74E-F462-0152-8475C1E77738,1.512,0.791,0.790,262.817,-69.153,-386.536,51.652,11.794,130.693,-13.427,-1.66,-8.98,0,30.78
2025-12-11 22:43:20.434,WT901BLE67,90856446-A74E-F462-0152-8475C1E77738,1.512,0.791,0.790,262.817,-69.153,-386.536,51.652,11.794,130.693,-13.427,-1.66,-8.98,0,30.78
2025-12-11 22:43:20.439,WT901BLE67,90856446-A74E-F462-0152-8475C1E77738,1.512,0.791,0.790,262.817,-69.153,-386.536,51.652,11.794,130.693,-13.427,-1.66,-8.98,0,30.78
2025-12-11 22:43:20.444,WT901BLE67,90856446-A74E-F462-0152-8475C1E77738,1.512,0.791,0.790,262.817,-69.153,-386.536,51.652,11.794,130.693,-13.427,-1.66,-8.98,0,30.78
2025-12-11 22:43:20.449,WT901BLE67,90856446-A74E-F462-0152-8475C1E77738,1.512,0.791,0.790,262.817,-69.153,-386.536,51.652,11.794,130.693,-13.427,-1.66,-8.98,0,30.78
2025-12-11 22:43:20.454,WT901BLE67,90856446-A74E-F462-0152-8475C1E77738,1.512,0.791,0.790,262.817,-69.153,-386.536,51.652,11.794,130.693,-13.427,-1.66,-8.98,0,30.78
2025-12-11 22:43:20.459,WT901BLE67,90856446-A74E-F462-0152-8475C1E77738,1.512,0.791,0.790,262.817,-69.153,-386.536,51.652,11.794,130.693,-13.427,-1.66,-8.98,0,30.78
2025-12-11 22:43:20.461,WT901BLE67,90856446-A74E-F462-0152-8475C1E77738,1.781,0.783,0.812,278.809,-71.167,-378.052,49.559,9.256,133.742,-13.427,-1.66,-8.98,0,30.78
2025-12-11 22:43:20.461,WT901BLE67,90856446-A74E-F462-0152-8475C1E77738,1.731,0.627,1.060,214.233,-32.654,-368.042,57.859,22.874,120.070,-13.427,-1.66,-8.98,0,30.78
2025-12-11 22:43:20.461,WT901BLE67,90856446-A74E-F462-0152-8475C1E77738,1.853,0.633,0.965,228.027,-45.288,-358.948,56.613,19.979,122.525,-13.427,-1.66,-8.98,0,30.78
2025-12-11 22:43:20.462,WT901BLE67,90856446-A74E-F462-0152-8475C1E77738,1.798,0.227,1.051,267.273,-169.983,-305.420,60.628,33.184,108.182,-13.427,-1.66,-8.98,0,30.78
2025-12-11 22:43:20.464,WT901BLE67,90856446-A74E-F462-0152-8475C1E77738,1.798,0.227,1.051,267.273,-169.983,-305.420,60.628,33.184,108.182,-13.427,-1.66,-8.98,0,30.78
2025-12-11 22:43:20.469,WT901BLE67,90856446-A74E-F462-0152-8475C1E77738,1.798,0.227,1.051,267.273,-169.983,-305.420,60.628,33.184,108.182,-13.427,-1.66,-8.98,0,30.78
2025-12-11 22:43:20.474,WT901BLE67,90856446-A74E-F462-0152-8475C1E77738,1.798,0.227,1.051,267.273,-169.983,-305.420,60.628,33.184,108.182,-13.427,-1.66,-8.98,0,30.78
2025-12-11 22:43:20.479,WT901BLE67,90856446-A74E-F462-0152-8475C1E77738,1.798,0.227,1.051,267.273,-169.983,-305.420,60.628,33.184,108.182,-13.427,-1.66,-8.98,0,30.78
2025-12-11 22:43:20.484,WT901BLE67,90856446-A74E-F462-0152-8475C1E77738,1.798,0.227,1.051,267.273,-169.983,-305.420,60.628,33.184,108.182,-13.427,-1.66,-8.98,0,30.78
2025-12-11 22:43:20.488,WT901BLE67,90856446-A74E-F462-0152-8475C1E77738,2.236,0.418,0.870,237.976,-129.578,-356.995,59.886,31.328,111.736,-13.427,-1.66,-8.98,0,30.78
2025-12-11 22:43:20.488,WT901BLE67,90856446-A74E-F462-0152-8475C1E77738,2.177,-0.079,1.037,146.545,-114.075,-181.641,62.336,38.249,97.537,-13.427,-1.66,-8.98,0,30.78
2025-12-11 22:43:20.489,WT901BLE67,90856446-A74E-F462-0152-8475C1E77738,2.177,-0.079,1.037,146.545,-114.075,-181.641,62.336,38.249,97.537,-13.427,-1.66,-8.98,0,30.78
2025-12-11 22:43:20.494,WT901BLE67,90856446-A74E-F462-0152-8475C1E77738,2.177,-0.079,1.037,146.545,-114.075,-181.641,62.336,38.249,97.537,-13.427,-1.66,-8.98,0,30.78
2025-12-11 22:43:20.499,WT901BLE67,90856446-A74E-F462-0152-8475C1E77738,2.177,-0.079,1.037,146.545,-114.075,-181.641,62.336,38.249,97.537,-13.427,-1.66,-8.98,0,30.78
2025-12-11 22:43:20.504,WT901BLE67,90856446-A74E-F462-0152-8475C1E77738,2.177,-0.079,1.037,146.545,-114.075,-181.641,62.336,38.249,97.537,-13.427,-1.66,-8.98,0,30.78
2025-12-11 22:43:20.509,WT901BLE67,90856446-A74E-F462-0152-8475C1E77738,2.177,-0.079,1.037,146.545,-114.075,-181.641,62.336,38.249,97.537,-13.427,-1.66,-8.98,0,30.78
2025-12-11 22:43:20.514,WT901BLE67,90856446-A74E-F462-0152-8475C1E77738,2.177,-0.079,1.037,146.545,-114.075,-181.641,62.336,38.249,97.537,-13.427,-1.66,-8.98,0,30.78
2025-12-11 22:43:20.519,WT901BLE67,90856446-A74E-F462-0152-8475C1E77738,2.177,-0.079,1.037,146.545,-114.075,-181.641,62.336,38.249,97.537,-13.427,-1.66,-8.98,0,30.78
2025-12-11 22:43:20.524,WT901BLE67,90856446-A74E-F462-0152-8475C1E77738,2.177,-0.079,1.037,146.545,-114.075,-181.641,62.336,38.249,97.537,-13.427,-1.66,-8.98,0,30.78
2025-12-11 22:43:20.529,WT901BLE67,90856446-A74E-F462-0152-8475C1E77738,2.177,-0.079,1.037,146.545,-114.075,-181.641,62.336,38.249,97.537,-13.427,-1.66,-8.98,0,30.78
2025-12-11 22:43:20.534,WT901BLE67,90856446-A74E-F462-0152-8475C1E77738,2.177,-0.079,1.037,146.545,-114.075,-181.641,62.336,38.249,97.537,-13.427,-1.66,-8.98,0,30.78
2025-12-11 22:43:20.539,WT901BLE67,90856446-A74E-F462-0152-8475C1E77738,2.177,-0.079,1.037,146.545,-114.075,-181.641,62.336,38.249,97.537,-13.427,-1.66,-8.98,0,30.78
2025-12-11 22:43:20.544,WT901BLE67,90856446-A74E-F462-0152-8475C1E77738,2.177,-0.079,1.037,146.545,-114.075,-181.641,62.336,38.249,97.537,-13.427,-1.66,-8.98,0,30.78
2025-12-11 22:43:20.549,WT901BLE67,90856446-A74E-F462-0152-8475C1E77738,2.177,-0.079,1.037,146.545,-114.075,-181.641,62.336,38.249,97.537,-13.427,-1.66,-8.98,0,30.78
2025-12-11 22:43:20.549,WT901BLE67,90856446-A74E-F462-0152-8475C1E77738,2.159,-0.034,1.096,174.927,-116.455,-202.698,62.281,37.156,99.882,-13.427,-1.66,-8.98,0,30.78
2025-12-11 22:43:20.549,WT901BLE67,90856446-A74E-F462-0152-8475C1E77738,2.098,-0.099,1.111,146.240,-100.525,-122.864,62.100,40.891,88.193,-13.427,-1.66,-8.98,0,30.78
2025-12-11 22:43:20.554,WT901BLE67,90856446-A74E-F462-0152-8475C1E77738,2.098,-0.099,1.111,146.240,-100.525,-122.864,62.100,40.891,88.193,-13.427,-1.66,-8.98,0,30.78
2025-12-11 22:43:20.559,WT901BLE67,90856446-A74E-F462-0152-8475C1E77738,2.098,-0.099,1.111,146.240,-100.525,-122.864,62.100,40.891,88.193,-13.427,-1.66,-8.98,0,30.78
2025-12-11 22:43:20.563,WT901BLE67,90856446-A74E-F462-0152-8475C1E77738,2.098,-0.099,1.111,146.240,-100.525,-122.864,62.100,40.891,88.193,-13.427,-1.66,-8.98,0,30.78
2025-12-11 22:43:20.569,WT901BLE67,90856446-A74E-F462-0152-8475C1E77738,2.098,-0.099,1.111,146.240,-100.525,-122.864,62.100,40.891,88.193,-13.427,-1.66,-8.98,0,30.78
2025-12-11 22:43:20.574,WT901BLE67,90856446-A74E-F462-0152-8475C1E77738,2.098,-0.099,1.111,146.240,-100.525,-122.864,62.100,40.891,88.193,-13.427,-1.66,-8.98,0,30.78
2025-12-11 22:43:20.578,WT901BLE67,90856446-A74E-F462-0152-8475C1E77738,2.654,-0.055,1.008,159.058,-151.733,-138.000,61.919,40.276,90.143,-13.427,-1.66,-8.98,0,30.78
2025-12-11 22:43:20.578,WT901BLE67,90856446-A74E-F462-0152-8475C1E77738,2.565,-0.241,1.797,-33.203,25.696,-21.301,63.962,43.319,89.017,-13.427,-1.66,-8.98,0,30.78
2025-12-11 22:43:20.579,WT901BLE67,90856446-A74E-F462-0152-8475C1E77738,2.565,-0.241,1.797,-33.203,25.696,-21.301,63.962,43.319,89.017,-13.427,-1.66,-8.98,0,30.78
2025-12-11 22:43:20.584,WT901BLE67,90856446-A74E-F462-0152-8475C1E77738,2.565,-0.241,1.797,-33.203,25.696,-21.301,63.962,43.319,89.017,-13.427,-1.66,-8.98,0,30.78
2025-12-11 22:43:20.589,WT901BLE67,90856446-A74E-F462-0152-8475C1E77738,2.565,-0.241,1.797,-33.203,25.696,-21.301,63.962,43.319,89.017,-13.427,-1.66,-8.98,0,30.78
2025-12-11 22:43:20.594,WT901BLE67,90856446-A74E-F462-0152-8475C1E77738,2.565,-0.241,1.797,-33.203,25.696,-21.301,63.962,43.319,89.017,-13.427,-1.66,-8.98,0,30.78
2025-12-11 22:43:20.599,WT901BLE67,90856446-A74E-F462-0152-8475C1E77738,2.565,-0.241,1.797,-33.203,25.696,-21.301,63.962,43.319,89.017,-13.427,-1.66,-8.98,0,30.78
2025-12-11 22:43:20.604,WT901BLE67,90856446-A74E-F462-0152-8475C1E77738,2.565,-0.241,1.797,-33.203,25.696,-21.301,63.962,43.319,89.017,-13.427,-1.66,-8.98,0,30.78
2025-12-11 22:43:20.609,WT901BLE67,90856446-A74E-F462-0152-8475C1E77738,2.974,-0.340,1.665,8.179,78.430,-26.306,64.122,43.000,88.792,-13.427,-1.66,-8.98,0,30.78
2025-12-11 22:43:20.609,WT901BLE67,90856446-A74E-F462-0152-8475C1E77738,2.916,0.766,2.524,-133.606,-26.367,73.059,58.788,41.759,86.748,-13.427,-1.66,-8.98,0,30.78
2025-12-11 22:43:20.609,WT901BLE67,90856446-A74E-F462-0152-8475C1E77738,2.916,0.766,2.524,-133.606,-26.367,73.059,58.788,41.759,86.748,-13.427,-1.66,-8.98,0,30.78
2025-12-11 22:43:20.614,WT901BLE67,90856446-A74E-F462-0152-8475C1E77738,2.916,0.766,2.524,-133.606,-26.367,73.059,58.788,41.759,86.748,-13.427,-1.66,-8.98,0,30.78
2025-12-11 22:43:20.619,WT901BLE67,90856446-A74E-F462-0152-8475C1E77738,2.916,0.766,2.524,-133.606,-26.367,73.059,58.788,41.759,86.748,-13.427,-1.66,-8.98,0,30.78
2025-12-11 22:43:20.624,WT901BLE67,90856446-A74E-F462-0152-8475C1E77738,2.916,0.766,2.524,-133.606,-26.367,73.059,58.788,41.759,86.748,-13.427,-1.66,-8.98,0,30.78
2025-12-11 22:43:20.629,WT901BLE67,90856446-A74E-F462-0152-8475C1E77738,2.916,0.766,2.524,-133.606,-26.367,73.059,58.788,41.759,86.748,-13.427,-1.66,-8.98,0,30.78
2025-12-11 22:43:20.634,WT901BLE67,90856446-A74E-F462-0152-8475C1E77738,2.916,0.766,2.524,-133.606,-26.367,73.059,58.788,41.759,86.748,-13.427,-1.66,-8.98,0,30.78
2025-12-11 22:43:20.639,WT901BLE67,90856446-A74E-F462-0152-8475C1E77738,2.916,0.766,2.524,-133.606,-26.367,73.059,58.788,41.759,86.748,-13.427,-1.66,-8.98,0,30.78
2025-12-11 22:43:20.644,WT901BLE67,90856446-A74E-F462-0152-8475C1E77738,2.916,0.766,2.524,-133.606,-26.367,73.059,58.788,41.759,86.748,-13.427,-1.66,-8.98,0,30.78
2025-12-11 22:43:20.649,WT901BLE67,90856446-A74E-F462-0152-8475C1E77738,2.916,0.766,2.524,-133.606,-26.367,73.059,58.788,41.759,86.748,-13.427,-1.66,-8.98,0,30.78
2025-12-11 22:43:20.654,WT901BLE67,90856446-A74E-F462-0152-8475C1E77738,2.916,0.766,2.524,-133.606,-26.367,73.059,58.788,41.759,86.748,-13.427,-1.66,-8.98,0,30.78
2025-12-11 22:43:20.659,WT901BLE67,90856446-A74E-F462-0152-8475C1E77738,2.916,0.766,2.524,-133.606,-26.367,73.059,58.788,41.759,86.748,-13.427,-1.66,-8.98,0,30.78
2025-12-11 22:43:20.663,WT901BLE67,90856446-A74E-F462-0152-8475C1E77738,2.916,0.766,2.524,-133.606,-26.367,73.059,58.788,41.759,86.748,-13.427,-1.66,-8.98,0,30.78
2025-12-11 22:43:20.669,WT901BLE67,90856446-A74E-F462-0152-8475C1E77738,2.916,0.766,2.524,-133.606,-26.367,73.059,58.788,41.759,86.748,-13.427,-1.66,-8.98,0,30.78
2025-12-11 22:43:20.671,WT901BLE67,90856446-A74E-F462-0152-8475C1E77738,2.733,0.529,2.310,-100.647,-80.261,20.508,60.013,42.512,86.594,-13.427,-1.66,-8.98,0,30.78
2025-12-11 22:43:20.671,WT901BLE67,90856446-A74E-F462-0152-8475C1E77738,2.906,2.017,3.335,-435.730,55.542,217.590,51.608,37.452,95.114,-13.427,-1.66,-8.98,0,30.78
2025-12-11 22:43:20.674,WT901BLE67,90856446-A74E-F462-0152-8475C1E77738,2.906,2.017,3.335,-435.730,55.542,217.590,51.608,37.452,95.114,-13.427,-1.66,-8.98,0,30.78
2025-12-11 22:43:20.679,WT901BLE67,90856446-A74E-F462-0152-8475C1E77738,2.906,2.017,3.335,-435.730,55.542,217.590,51.608,37.452,95.114,-13.427,-1.66,-8.98,0,30.78
2025-12-11 22:43:20.684,WT901BLE67,90856446-A74E-F462-0152-8475C1E77738,2.906,2.017,3.335,-435.730,55.542,217.590,51.608,37.452,95.114,-13.427,-1.66,-8.98,0,30.78
2025-12-11 22:43:20.689,WT901BLE67,90856446-A74E-F462-0152-8475C1E77738,2.906,2.017,3.335,-435.730,55.542,217.590,51.608,37.452,95.114,-13.427,-1.66,-8.98,0,30.78
2025-12-11 22:43:20.694,WT901BLE67,90856446-A74E-F462-0152-8475C1E77738,2.906,2.017,3.335,-435.730,55.542,217.590,51.608,37.452,95.114,-13.427,-1.66,-8.98,0,30.78
2025-12-11 22:43:20.698,WT901BLE67,90856446-A74E-F462-0152-8475C1E77738,1.983,1.637,3.004,-362.854,101.440,202.271,54.553,38.848,92.884,-13.427,-1.66,-8.98,0,30.78
2025-12-11 22:43:20.698,WT901BLE67,90856446-A74E-F462-0152-8475C1E77738,1.717,3.975,3.303,-702.148,8.057,251.648,31.514,30.157,101.733,-13.427,-1.66,-8.98,0,30.78
2025-12-11 22:43:20.699,WT901BLE67,90856446-A74E-F462-0152-8475C1E77738,1.717,3.975,3.303,-702.148,8.057,251.648,31.514,30.157,101.733,-13.427,-1.66,-8.98,0,30.78
2025-12-11 22:43:20.704,WT901BLE67,90856446-A74E-F462-0152-8475C1E77738,1.717,3.975,3.303,-702.148,8.057,251.648,31.514,30.157,101.733,-13.427,-1.66,-8.98,0,30.78
2025-12-11 22:43:20.709,WT901BLE67,90856446-A74E-F462-0152-8475C1E77738,1.717,3.975,3.303,-702.148,8.057,251.648,31.514,30.157,101.733,-13.427,-1.66,-8.98,0,30.78
2025-12-11 22:43:20.714,WT901BLE67,90856446-A74E-F462-0152-8475C1E77738,1.717,3.975,3.303,-702.148,8.057,251.648,31.514,30.157,101.733,-13.427,-1.66,-8.98,0,30.78
2025-12-11 22:43:20.719,WT901BLE67,90856446-A74E-F462-0152-8475C1E77738,1.717,3.975,3.303,-702.148,8.057,251.648,31.514,30.157,101.733,-13.427,-1.66,-8.98,0,30.78
2025-12-11 22:43:20.724,WT901BLE67,90856446-A74E-F462-0152-8475C1E77738,1.717,3.975,3.303,-702.148,8.057,251.648,31.514,30.157,101.733,-13.427,-1.66,-8.98,0,30.78
2025-12-11 22:43:20.729,WT901BLE67,90856446-A74E-F462-0152-8475C1E77738,1.717,3.975,3.303,-702.148,8.057,251.648,31.514,30.157,101.733,-13.427,-1.66,-8.98,0,30.78
2025-12-11 22:43:20.731,WT901BLE67,90856446-A74E-F462-0152-8475C1E77738,2.104,3.549,3.302,-626.465,-63.416,227.112,37.266,31.481,99.300,-13.427,-1.66,-8.98,0,30.78
2025-12-11 22:43:20.731,WT901BLE67,90856446-A74E-F462-0152-8475C1E77738,2.263,5.532,4.012,-851.318,-80.566,404.663,6.702,26.274,117.625,-13.427,-1.66,-8.98,0,30.78
2025-12-11 22:43:20.734,WT901BLE67,90856446-A74E-F462-0152-8475C1E77738,2.263,5.532,4.012,-851.318,-80.566,404.663,6.702,26.274,117.625,-13.427,-1.66,-8.98,0,30.78
2025-12-11 22:43:20.739,WT901BLE67,90856446-A74E-F462-0152-8475C1E77738,2.263,5.532,4.012,-851.318,-80.566,404.663,6.702,26.274,117.625,-13.427,-1.66,-8.98,0,30.78
2025-12-11 22:43:20.743,WT901BLE67,90856446-A74E-F462-0152-8475C1E77738,2.263,5.532,4.012,-851.318,-80.566,404.663,6.702,26.274,117.625,-13.427,-1.66,-8.98,0,30.78
2025-12-11 22:43:20.749,WT901BLE67,90856446-A74E-F462-0152-8475C1E77738,2.263,5.532,4.012,-851.318,-80.566,404.663,6.702,26.274,117.625,-13.427,-1.66,-8.98,0,30.78
2025-12-11 22:43:20.754,WT901BLE67,90856446-A74E-F462-0152-8475C1E77738,2.263,5.532,4.012,-851.318,-80.566,404.663,6.702,26.274,117.625,-13.427,-1.66,-8.98,0,30.78
2025-12-11 22:43:20.759,WT901BLE67,90856446-A74E-F462-0152-8475C1E77738,2.263,5.532,4.012,-851.318,-80.566,404.663,6.702,26.274,117.625,-13.427,-1.66,-8.98,0,30.78
2025-12-11 22:43:20.764,WT901BLE67,90856446-A74E-F462-0152-8475C1E77738,2.263,5.532,4.012,-851.318,-80.566,404.663,6.702,26.274,117.625,-13.427,-1.66,-8.98,0,30.78
2025-12-11 22:43:20.769,WT901BLE67,90856446-A74E-F462-0152-8475C1E77738,2.263,5.532,4.012,-851.318,-80.566,404.663,6.702,26.274,117.625,-13.427,-1.66,-8.98,0,30.78
2025-12-11 22:43:20.774,WT901BLE67,90856446-A74E-F462-0152-8475C1E77738,2.263,5.532,4.012,-851.318,-80.566,404.663,6.702,26.274,117.625,-13.427,-1.66,-8.98,0,30.78
2025-12-11 22:43:20.779,WT901BLE67,90856446-A74E-F462-0152-8475C1E77738,2.263,5.532,4.012,-851.318,-80.566,404.663,6.702,26.274,117.625,-13.427,-1.66,-8.98,0,30.78
2025-12-11 22:43:20.784,WT901BLE67,90856446-A74E-F462-0152-8475C1E77738,2.263,5.532,4.012,-851.318,-80.566,404.663,6.702,26.274,117.625,-13.427,-1.66,-8.98,0,30.78
2025-12-11 22:43:20.789,WT901BLE67,90856446-A74E-F462-0152-8475C1E77738,2.263,5.532,4.012,-851.318,-80.566,404.663,6.702,26.274,117.625,-13.427,-1.66,-8.98,0,30.78
2025-12-11 22:43:20.792,WT901BLE67,90856446-A74E-F462-0152-8475C1E77738,2.121,5.229,3.700,-828.857,6.165,377.380,13.244,27.702,113.313,-13.427,-1.66,-8.98,0,30.78
2025-12-11 22:43:20.792,WT901BLE67,90856446-A74E-F462-0152-8475C1E77738,1.791,7.188,5.630,-992.249,-74.646,514.526,-21.863,23.835,138.807,-13.427,-1.66,-8.98,0,30.78
2025-12-11 22:43:20.794,WT901BLE67,90856446-A74E-F462-0152-8475C1E77738,1.791,7.188,5.630,-992.249,-74.646,514.526,-21.863,23.835,138.807,-13.427,-1.66,-8.98,0,30.78
2025-12-11 22:43:20.799,WT901BLE67,90856446-A74E-F462-0152-8475C1E77738,1.791,7.188,5.630,-992.249,-74.646,514.526,-21.863,23.835,138.807,-13.427,-1.66,-8.98,0,30.78
2025-12-11 22:43:20.804,WT901BLE67,90856446-A74E-F462-0152-8475C1E77738,1.791,7.188,5.630,-992.249,-74.646,514.526,-21.863,23.835,138.807,-13.427,-1.66,-8.98,0,30.78
2025-12-11 22:43:20.809,WT901BLE67,90856446-A74E-F462-0152-8475C1E77738,1.791,7.188,5.630,-992.249,-74.646,514.526,-21.863,23.835,138.807,-13.427,-1.66,-8.98,0,30.78
2025-12-11 22:43:20.813,WT901BLE67,90856446-A74E-F462-0152-8475C1E77738,1.791,7.188,5.630,-992.249,-74.646,514.526,-21.863,23.835,138.807,-13.427,-1.66,-8.98,0,30.78
2025-12-11 22:43:20.818,WT901BLE67,90856446-A74E-F462-0152-8475C1E77738,1.558,6.808,5.487,-951.660,-120.239,501.404,-14.200,23.044,133.154,-13.427,-1.66,-8.98,0,30.78
2025-12-11 22:43:20.818,WT901BLE67,90856446-A74E-F462-0152-8475C1E77738,1.852,8.048,6.830,-999.756,-144.348,555.054,-50.977,32.465,162.307,-13.427,-1.66,-8.98,0,30.78
2025-12-11 22:43:20.819,WT901BLE67,90856446-A74E-F462-0152-8475C1E77738,1.852,8.048,6.830,-999.756,-144.348,555.054,-50.977,32.465,162.307,-13.427,-1.66,-8.98,0,30.78
2025-12-11 22:43:20.824,WT901BLE67,90856446-A74E-F462-0152-8475C1E77738,1.852,8.048,6.830,-999.756,-144.348,555.054,-50.977,32.465,162.307,-13.427,-1.66,-8.98,0,30.78
2025-12-11 22:43:20.829,WT901BLE67,90856446-A74E-F462-0152-8475C1E77738,1.852,8.048,6.830,-999.756,-144.348,555.054,-50.977,32.465,162.307,-13.427,-1.66,-8.98,0,30.78
2025-12-11 22:43:20.834,WT901BLE67,90856446-A74E-F462-0152-8475C1E77738,1.852,8.048,6.830,-999.756,-144.348,555.054,-50.977,32.465,162.307,-13.427,-1.66,-8.98,0,30.78
2025-12-11 22:43:20.839,WT901BLE67,90856446-A74E-F462-0152-8475C1E77738,1.852,8.048,6.830,-999.756,-144.348,555.054,-50.977,32.465,162.307,-13.427,-1.66,-8.98,0,30.78
2025-12-11 22:43:20.844,WT901BLE67,90856446-A74E-F462-0152-8475C1E77738,1.852,8.048,6.830,-999.756,-144.348,555.054,-50.977,32.465,162.307,-13.427,-1.66,-8.98,0,30.78
2025-12-11 22:43:20.849,WT901BLE67,90856446-A74E-F462-0152-8475C1E77738,1.852,8.048,6.830,-999.756,-144.348,555.054,-50.977,32.465,162.307,-13.427,-1.66,-8.98,0,30.78
2025-12-11 22:43:20.849,WT901BLE67,90856446-A74E-F462-0152-8475C1E77738,1.586,7.771,6.491,-994.629,-163.025,557.861,-43.868,29.388,156.698,-13.427,-1.66,-8.98,0,30.78
2025-12-11 22:43:20.849,WT901BLE67,90856446-A74E-F462-0152-8475C1E77738,1.599,7.926,5.430,-1051.697,-119.873,472.778,-82.315,47.994,178.121,-13.427,-1.66,-8.98,0,30.78
2025-12-11 22:43:20.854,WT901BLE67,90856446-A74E-F462-0152-8475C1E77738,1.599,7.926,5.430,-1051.697,-119.873,472.778,-82.315,47.994,178.121,-13.427,-1.66,-8.98,0,30.78
2025-12-11 22:43:20.859,WT901BLE67,90856446-A74E-F462-0152-8475C1E77738,1.599,7.926,5.430,-1051.697,-119.873,472.778,-82.315,47.994,178.121,-13.427,-1.66,-8.98,0,30.78
2025-12-11 22:43:20.864,WT901BLE67,90856446-A74E-F462-0152-8475C1E77738,1.599,7.926,5.430,-1051.697,-119.873,472.778,-82.315,47.994,178.121,-13.427,-1.66,-8.98,0,30.78
2025-12-11 22:43:20.869,WT901BLE67,90856446-A74E-F462-0152-8475C1E77738,1.599,7.926,5.430,-1051.697,-119.873,472.778,-82.315,47.994,178.121,-13.427,-1.66,-8.98,0,30.78
2025-12-11 22:43:20.874,WT901BLE67,90856446-A74E-F462-0152-8475C1E77738,1.599,7.926,5.430,-1051.697,-119.873,472.778,-82.315,47.994,178.121,-13.427,-1.66,-8.98,0,30.78
2025-12-11 22:43:20.879,WT901BLE67,90856446-A74E-F462-0152-8475C1E77738,1.599,7.926,5.430,-1051.697,-119.873,472.778,-82.315,47.994,178.121,-13.427,-1.66,-8.98,0,30.78
2025-12-11 22:43:20.884,WT901BLE67,90856446-A74E-F462-0152-8475C1E77738,1.599,7.926,5.430,-1051.697,-119.873,472.778,-82.315,47.994,178.121,-13.427,-1.66,-8.98,0,30.78
2025-12-11 22:43:20.889,WT901BLE67,90856446-A74E-F462-0152-8475C1E77738,1.599,7.926,5.430,-1051.697,-119.873,472.778,-82.315,47.994,178.121,-13.427,-1.66,-8.98,0,30.78
2025-12-11 22:43:20.894,WT901BLE67,90856446-A74E-F462-0152-8475C1E77738,1.599,7.926,5.430,-1051.697,-119.873,472.778,-82.315,47.994,178.121,-13.427,-1.66,-8.98,0,30.78
2025-12-11 22:43:20.899,WT901BLE67,90856446-A74E-F462-0152-8475C1E77738,1.599,7.926,5.430,-1051.697,-119.873,472.778,-82.315,47.994,178.121,-13.427,-1.66,-8.98,0,30.78
2025-12-11 22:43:20.904,WT901BLE67,90856446-A74E-F462-0152-8475C1E77738,1.599,7.926,5.430,-1051.697,-119.873,472.778,-82.315,47.994,178.121,-13.427,-1.66,-8.98,0,30.78
2025-12-11 22:43:20.909,WT901BLE67,90856446-A74E-F462-0152-8475C1E77738,0.154,8.015,5.722,-1036.438,-114.014,467.407,-73.998,43.621,175.062,-13.427,-1.66,-8.98,0,30.78
2025-12-11 22:43:20.909,WT901BLE67,90856446-A74E-F462-0152-8475C1E77738,0.528,6.980,2.357,-921.326,67.322,398.743,-128.232,65.231,171.639,-13.427,-1.66,-8.98,0,30.78
2025-12-11 22:43:20.909,WT901BLE67,90856446-A74E-F462-0152-8475C1E77738,0.528,6.980,2.357,-921.326,67.322,398.743,-128.232,65.231,171.639,-13.427,-1.66,-8.98,0,30.78
2025-12-11 22:43:20.914,WT901BLE67,90856446-A74E-F462-0152-8475C1E77738,0.528,6.980,2.357,-921.326,67.322,398.743,-128.232,65.231,171.639,-13.427,-1.66,-8.98,0,30.78
2025-12-11 22:43:20.919,WT901BLE67,90856446-A74E-F462-0152-8475C1E77738,0.528,6.980,2.357,-921.326,67.322,398.743,-128.232,65.231,171.639,-13.427,-1.66,-8.98,0,30.78
2025-12-11 22:43:20.924,WT901BLE67,90856446-A74E-F462-0152-8475C1E77738,0.528,6.980,2.357,-921.326,67.322,398.743,-128.232,65.231,171.639,-13.427,-1.66,-8.98,0,30.78
2025-12-11 22:43:20.929,WT901BLE67,90856446-A74E-F462-0152-8475C1E77738,0.528,6.980,2.357,-921.326,67.322,398.743,-128.232,65.231,171.639,-13.427,-1.66,-8.98,0,30.78
2025-12-11 22:43:20.934,WT901BLE67,90856446-A74E-F462-0152-8475C1E77738,0.528,6.980,2.357,-921.326,67.322,398.743,-128.232,65.231,171.639,-13.427,-1.66,-8.98,0,30.78
2025-12-11 22:43:20.939,WT901BLE67,90856446-A74E-F462-0152-8475C1E77738,0.528,6.980,2.357,-921.326,67.322,398.743,-128.232,65.231,171.639,-13.427,-1.66,-8.98,0,30.78
2025-12-11 22:43:20.942,WT901BLE67,90856446-A74E-F462-0152-8475C1E77738,0.436,7.504,3.197,-979.980,6.409,466.125,-113.708,62.117,177.517,-13.427,-1.66,-8.98,0,30.78
2025-12-11 22:43:20.943,WT901BLE67,90856446-A74E-F462-0152-8475C1E77738,0.337,4.344,-0.076,-725.098,83.557,125.916,178.555,65.341,148.321,-13.427,-1.66,-8.98,0,30.78
2025-12-11 22:43:20.944,WT901BLE67,90856446-A74E-F462-0152-8475C1E77738,0.337,4.344,-0.076,-725.098,83.557,125.916,178.555,65.341,148.321,-13.427,-1.66,-8.98,0,30.78
2025-12-11 22:43:20.949,WT901BLE67,90856446-A74E-F462-0152-8475C1E77738,0.337,4.344,-0.076,-725.098,83.557,125.916,178.555,65.341,148.321,-13.427,-1.66,-8.98,0,30.78
2025-12-11 22:43:20.954,WT901BLE67,90856446-A74E-F462-0152-8475C1E77738,0.337,4.344,-0.076,-725.098,83.557,125.916,178.555,65.341,148.321,-13.427,-1.66,-8.98,0,30.78
2025-12-11 22:43:20.959,WT901BLE67,90856446-A74E-F462-0152-8475C1E77738,0.337,4.344,-0.076,-725.098,83.557,125.916,178.555,65.341,148.321,-13.427,-1.66,-8.98,0,30.78
2025-12-11 22:43:20.964,WT901BLE67,90856446-A74E-F462-0152-8475C1E77738,0.337,4.344,-0.076,-725.098,83.557,125.916,178.555,65.341,148.321,-13.427,-1.66,-8.98,0,30.78
2025-12-11 22:43:20.969,WT901BLE67,90856446-A74E-F462-0152-8475C1E77738,0.337,4.344,-0.076,-725.098,83.557,125.916,178.555,65.341,148.321,-13.427,-1.66,-8.98,0,30.78
2025-12-11 22:43:20.974,WT901BLE67,90856446-A74E-F462-0152-8475C1E77738,0.337,4.344,-0.076,-725.098,83.557,125.916,178.555,65.341,148.321,-13.427,-1.66,-8.98,0,30.78
2025-12-11 22:43:20.979,WT901BLE67,90856446-A74E-F462-0152-8475C1E77738,0.337,4.344,-0.076,-725.098,83.557,125.916,178.555,65.341,148.321,-13.427,-1.66,-8.98,0,30.78
2025-12-11 22:43:20.984,WT901BLE67,90856446-A74E-F462-0152-8475C1E77738,0.337,4.344,-0.076,-725.098,83.557,125.916,178.555,65.341,148.321,-13.427,-1.66,-8.98,0,30.78
2025-12-11 22:43:20.988,WT901BLE67,90856446-A74E-F462-0152-8475C1E77738,0.337,4.344,-0.076,-725.098,83.557,125.916,178.555,65.341,148.321,-13.427,-1.66,-8.98,0,30.78
2025-12-11 22:43:20.994,WT901BLE67,90856446-A74E-F462-0152-8475C1E77738,0.337,4.344,-0.076,-725.098,83.557,125.916,178.555,65.341,148.321,-13.427,-1.66,-8.98,0,30.78
2025-12-11 22:43:20.999,WT901BLE67,90856446-A74E-F462-0152-8475C1E77738,0.337,4.344,-0.076,-725.098,83.557,125.916,178.555,65.341,148.321,-13.427,-1.66,-8.98,0,30.78
2025-12-11 22:43:20.999,WT901BLE67,90856446-A74E-F462-0152-8475C1E77738,0.656,4.862,0.700,-776.367,116.455,182.678,-171.178,66.099,151.606,-13.427,-1.66,-8.98,0,30.78
2025-12-11 22:43:20.999,WT901BLE67,90856446-A74E-F462-0152-8475C1E77738,0.641,2.117,-1.350,-383.301,51.941,39.001,154.028,63.133,144.943,-13.427,-1.66,-8.98,0,30.78
2025-12-11 22:43:21.004,WT901BLE67,90856446-A74E-F462-0152-8475C1E77738,0.641,2.117,-1.350,-383.301,51.941,39.001,154.028,63.133,144.943,-13.427,-1.66,-8.98,0,30.78
2025-12-11 22:43:21.009,WT901BLE67,90856446-A74E-F462-0152-8475C1E77738,0.641,2.117,-1.350,-383.301,51.941,39.001,154.028,63.133,144.943,-13.427,-1.66,-8.98,0,30.78
2025-12-11 22:43:21.013,WT901BLE67,90856446-A74E-F462-0152-8475C1E77738,0.641,2.117,-1.350,-383.301,51.941,39.001,154.028,63.133,144.943,-13.427,-1.66,-8.98,0,30.78
2025-12-11 22:43:21.019,WT901BLE67,90856446-A74E-F462-0152-8475C1E77738,0.641,2.117,-1.350,-383.301,51.941,39.001,154.028,63.133,144.943,-13.427,-1.66,-8.98,0,30.78
2025-12-11 22:43:21.024,WT901BLE67,90856446-A74E-F462-0152-8475C1E77738,0.641,2.117,-1.350,-383.301,51.941,39.001,154.028,63.133,144.943,-13.427,-1.66,-8.98,0,30.78
2025-12-11 22:43:21.029,WT901BLE67,90856446-A74E-F462-0152-8475C1E77738,0.641,2.117,-1.350,-383.301,51.941,39.001,154.028,63.133,144.943,-13.427,-1.66,-8.98,0,30.78
2025-12-11 22:43:21.029,WT901BLE67,90856446-A74E-F462-0152-8475C1E77738,0.112,2.657,-1.430,-497.131,32.532,26.306,158.269,63.721,145.256,-13.427,-1.66,-8.98,0,30.78
2025-12-11 22:43:21.030,WT901BLE67,90856446-A74E-F462-0152-8475C1E77738,0.297,0.866,-0.986,-103.271,49.255,-14.526,146.920,61.392,145.898,-13.427,-1.66,-8.98,0,30.78
2025-12-11 22:43:21.034,WT901BLE67,90856446-A74E-F462-0152-8475C1E77738,0.297,0.866,-0.986,-103.271,49.255,-14.526,146.920,61.392,145.898,-13.427,-1.66,-8.98,0,30.78
2025-12-11 22:43:21.039,WT901BLE67,90856446-A74E-F462-0152-8475C1E77738,0.297,0.866,-0.986,-103.271,49.255,-14.526,146.920,61.392,145.898,-13.427,-1.66,-8.98,0,30.78
2025-12-11 22:43:21.044,WT901BLE67,90856446-A74E-F462-0152-8475C1E77738,0.297,0.866,-0.986,-103.271,49.255,-14.526,146.920,61.392,145.898,-13.427,-1.66,-8.98,0,30.78
2025-12-11 22:43:21.049,WT901BLE67,90856446-A74E-F462-0152-8475C1E77738,0.297,0.866,-0.986,-103.271,49.255,-14.526,146.920,61.392,145.898,-13.427,-1.66,-8.98,0,30.78
2025-12-11 22:43:21.054,WT901BLE67,90856446-A74E-F462-0152-8475C1E77738,0.297,0.866,-0.986,-103.271,49.255,-14.526,146.920,61.392,145.898,-13.427,-1.66,-8.98,0,30.78
2025-12-11 22:43:21.059,WT901BLE67,90856446-A74E-F462-0152-8475C1E77738,-0.020,1.112,-1.203,-146.057,33.875,8.240,147.277,61.716,145.107,-13.427,-1.66,-8.98,0,30.78
2025-12-11 22:43:21.059,WT901BLE67,90856446-A74E-F462-0152-8475C1E77738,-0.080,0.242,-0.464,-44.617,75.500,-126.160,152.216,60.793,154.803,-13.427,-1.66,-8.98,0,30.78
2025-12-11 22:43:21.059,WT901BLE67,90856446-A74E-F462-0152-8475C1E77738,-0.080,0.242,-0.464,-44.617,75.500,-126.160,152.216,60.793,154.803,-13.427,-1.66,-8.98,0,30.78
2025-12-11 22:43:21.064,WT901BLE67,90856446-A74E-F462-0152-8475C1E77738,-0.080,0.242,-0.464,-44.617,75.500,-126.160,152.216,60.793,154.803,-13.427,-1.66,-8.98,0,30.78
2025-12-11 22:43:21.069,WT901BLE67,90856446-A74E-F462-0152-8475C1E77738,-0.080,0.242,-0.464,-44.617,75.500,-126.160,152.216,60.793,154.803,-13.427,-1.66,-8.98,0,30.78
2025-12-11 22:43:21.074,WT901BLE67,90856446-A74E-F462-0152-8475C1E77738,-0.080,0.242,-0.464,-44.617,75.500,-126.160,152.216,60.793,154.803,-13.427,-1.66,-8.98,0,30.78
2025-12-11 22:43:21.079,WT901BLE67,90856446-A74E-F462-0152-8475C1E77738,-0.080,0.242,-0.464,-44.617,75.500,-126.160,152.216,60.793,154.803,-13.427,-1.66,-8.98,0,30.78
2025-12-11 22:43:21.084,WT901BLE67,90856446-A74E-F462-0152-8475C1E77738,-0.080,0.242,-0.464,-44.617,75.500,-126.160,152.216,60.793,154.803,-13.427,-1.66,-8.98,0,30.78
2025-12-11 22:43:21.089,WT901BLE67,90856446-A74E-F462-0152-8475C1E77738,-0.080,0.242,-0.464,-44.617,75.500,-126.160,152.216,60.793,154.803,-13.427,-1.66,-8.98,0,30.78
2025-12-11 22:43:21.092,WT901BLE67,90856446-A74E-F462-0152-8475C1E77738,0.828,0.365,-0.587,-62.866,73.914,-102.356,150.068,60.853,151.820,-13.427,-1.66,-8.98,0,30.78
2025-12-11 22:43:21.092,WT901BLE67,90856446-A74E-F462-0152-8475C1E77738,0.655,-0.131,-0.330,-17.334,-11.719,-130.066,160.637,61.979,165.569,-13.427,-1.66,-8.98,0,30.78
2025-12-11 22:43:21.094,WT901BLE67,90856446-A74E-F462-0152-8475C1E77738,0.655,-0.131,-0.330,-17.334,-11.719,-130.066,160.637,61.979,165.569,-13.427,-1.66,-8.98,0,30.78
2025-12-11 22:43:21.099,WT901BLE67,90856446-A74E-F462-0152-8475C1E77738,0.655,-0.131,-0.330,-17.334,-11.719,-130.066,160.637,61.979,165.569,-13.427,-1.66,-8.98,0,30.78
2025-12-11 22:43:21.104,WT901BLE67,90856446-A74E-F462-0152-8475C1E77738,0.655,-0.131,-0.330,-17.334,-11.719,-130.066,160.637,61.979,165.569,-13.427,-1.66,-8.98,0,30.78
2025-12-11 22:43:21.109,WT901BLE67,90856446-A74E-F462-0152-8475C1E77738,0.655,-0.131,-0.330,-17.334,-11.719,-130.066,160.637,61.979,165.569,-13.427,-1.66,-8.98,0,30.78
2025-12-11 22:43:21.114,WT901BLE67,90856446-A74E-F462-0152-8475C1E77738,0.655,-0.131,-0.330,-17.334,-11.719,-130.066,160.637,61.979,165.569,-13.427,-1.66,-8.98,0,30.78
2025-12-11 22:43:21.119,WT901BLE67,90856446-A74E-F462-0152-8475C1E77738,0.655,-0.131,-0.330,-17.334,-11.719,-130.066,160.637,61.979,165.569,-13.427,-1.66,-8.98,0,30.78
2025-12-11 22:43:21.124,WT901BLE67,90856446-A74E-F462-0152-8475C1E77738,0.655,-0.131,-0.330,-17.334,-11.719,-130.066,160.637,61.979,165.569,-13.427,-1.66,-8.98,0,30.78
2025-12-11 22:43:21.129,WT901BLE67,90856446-A74E-F462-0152-8475C1E77738,0.655,-0.131,-0.330,-17.334,-11.719,-130.066,160.637,61.979,165.569,-13.427,-1.66,-8.98,0,30.78
2025-12-11 22:43:21.134,WT901BLE67,90856446-A74E-F462-0152-8475C1E77738,0.655,-0.131,-0.330,-17.334,-11.719,-130.066,160.637,61.979,165.569,-13.427,-1.66,-8.98,0,30.78
2025-12-11 22:43:21.139,WT901BLE67,90856446-A74E-F462-0152-8475C1E77738,0.655,-0.131,-0.330,-17.334,-11.719,-130.066,160.637,61.979,165.569,-13.427,-1.66,-8.98,0,30.78
2025-12-11 22:43:21.144,WT901BLE67,90856446-A74E-F462-0152-8475C1E77738,0.655,-0.131,-0.330,-17.334,-11.719,-130.066,160.637,61.979,165.569,-13.427,-1.66,-8.98,0,30.78
2025-12-11 22:43:21.149,WT901BLE67,90856446-A74E-F462-0152-8475C1E77738,0.655,-0.131,-0.330,-17.334,-11.719,-130.066,160.637,61.979,165.569,-13.427,-1.66,-8.98,0,30.78
2025-12-11 22:43:21.151,WT901BLE67,90856446-A74E-F462-0152-8475C1E77738,0.995,-0.066,-0.285,-27.771,11.047,-128.845,158.632,61.430,163.081,-13.427,-1.66,-8.98,0,30.78
2025-12-11 22:43:21.151,WT901BLE67,90856446-A74E-F462-0152-8475C1E77738,1.016,-0.353,-0.732,50.110,-125.793,-83.130,167.728,66.539,172.601,-13.427,-1.66,-8.98,0,30.78
2025-12-11 22:43:21.154,WT901BLE67,90856446-A74E-F462-0152-8475C1E77738,1.016,-0.353,-0.732,50.110,-125.793,-83.130,167.728,66.539,172.601,-13.427,-1.66,-8.98,0,30.78
2025-12-11 22:43:21.159,WT901BLE67,90856446-A74E-F462-0152-8475C1E77738,1.016,-0.353,-0.732,50.110,-125.793,-83.130,167.728,66.539,172.601,-13.427,-1.66,-8.98,0,30.78
2025-12-11 22:43:21.164,WT901BLE67,90856446-A74E-F462-0152-8475C1E77738,1.016,-0.353,-0.732,50.110,-125.793,-83.130,167.728,66.539,172.601,-13.427,-1.66,-8.98,0,30.78
2025-12-11 22:43:21.169,WT901BLE67,90856446-A74E-F462-0152-8475C1E77738,1.016,-0.353,-0.732,50.110,-125.793,-83.130,167.728,66.539,172.601,-13.427,-1.66,-8.98,0,30.78
2025-12-11 22:43:21.174,WT901BLE67,90856446-A74E-F462-0152-8475C1E77738,1.016,-0.353,-0.732,50.110,-125.793,-83.130,167.728,66.539,172.601,-13.427,-1.66,-8.98,0,30.78
2025-12-11 22:43:21.178,WT901BLE67,90856446-A74E-F462-0152-8475C1E77738,0.774,-0.306,-0.674,27.527,-112.427,-99.182,166.058,65.132,171.310,-13.427,-1.66,-8.98,0,30.78
2025-12-11 22:43:21.178,WT901BLE67,90856446-A74E-F462-0152-8475C1E77738,0.826,-0.488,-0.724,98.450,-34.668,-4.700,172.639,69.873,174.408,-13.427,-1.66,-8.98,0,30.78
2025-12-11 22:43:21.179,WT901BLE67,90856446-A74E-F462-0152-8475C1E77738,0.826,-0.488,-0.724,98.450,-34.668,-4.700,172.639,69.873,174.408,-13.427,-1.66,-8.98,0,30.78
2025-12-11 22:43:21.184,WT901BLE67,90856446-A74E-F462-0152-8475C1E77738,0.826,-0.488,-0.724,98.450,-34.668,-4.700,172.639,69.873,174.408,-13.427,-1.66,-8.98,0,30.78
2025-12-11 22:43:21.189,WT901BLE67,90856446-A74E-F462-0152-8475C1E77738,0.826,-0.488,-0.724,98.450,-34.668,-4.700,172.639,69.873,174.408,-13.427,-1.66,-8.98,0,30.78
2025-12-11 22:43:21.194,WT901BLE67,90856446-A74E-F462-0152-8475C1E77738,0.826,-0.488,-0.724,98.450,-34.668,-4.700,172.639,69.873,174.408,-13.427,-1.66,-8.98,0,30.78
2025-12-11 22:43:21.199,WT901BLE67,90856446-A74E-F462-0152-8475C1E77738,0.826,-0.488,-0.724,98.450,-34.668,-4.700,172.639,69.873,174.408,-13.427,-1.66,-8.98,0,30.78
2025-12-11 22:43:21.204,WT901BLE67,90856446-A74E-F462-0152-8475C1E77738,0.826,-0.488,-0.724,98.450,-34.668,-4.700,172.639,69.873,174.408,-13.427,-1.66,-8.98,0,30.78
2025-12-11 22:43:21.209,WT901BLE67,90856446-A74E-F462-0152-8475C1E77738,0.826,-0.488,-0.724,98.450,-34.668,-4.700,172.639,69.873,174.408,-13.427,-1.66,-8.98,0,30.78
2025-12-11 22:43:21.211,WT901BLE67,90856446-A74E-F462-0152-8475C1E77738,0.668,-0.434,-0.796,86.792,-62.561,-18.066,171.645,69.510,174.391,-13.427,-1.66,-8.98,0,30.78
2025-12-11 22:43:21.211,WT901BLE67,90856446-A74E-F462-0152-8475C1E77738,0.679,-0.564,-0.477,133.057,4.333,14.221,176.089,69.895,173.123,-13.427,-1.66,-8.98,0,30.78
2025-12-11 22:43:21.214,WT901BLE67,90856446-A74E-F462-0152-8475C1E77738,0.679,-0.564,-0.477,133.057,4.333,14.221,176.089,69.895,173.123,-13.427,-1.66,-8.98,0,30.78
2025-12-11 22:43:21.219,WT901BLE67,90856446-A74E-F462-0152-8475C1E77738,0.679,-0.564,-0.477,133.057,4.333,14.221,176.089,69.895,173.123,-13.427,-1.66,-8.98,0,30.78
2025-12-11 22:43:21.224,WT901BLE67,90856446-A74E-F462-0152-8475C1E77738,0.679,-0.564,-0.477,133.057,4.333,14.221,176.089,69.895,173.123,-13.427,-1.66,-8.98,0,30.78
2025-12-11 22:43:21.229,WT901BLE67,90856446-A74E-F462-0152-8475C1E77738,0.679,-0.564,-0.477,133.057,4.333,14.221,176.089,69.895,173.123,-13.427,-1.66,-8.98,0,30.78
2025-12-11 22:43:21.234,WT901BLE67,90856446-A74E-F462-0152-8475C1E77738,0.679,-0.564,-0.477,133.057,4.333,14.221,176.089,69.895,173.123,-13.427,-1.66,-8.98,0,30.78
2025-12-11 22:43:21.239,WT901BLE67,90856446-A74E-F462-0152-8475C1E77738,0.679,-0.564,-0.477,133.057,4.333,14.221,176.089,69.895,173.123,-13.427,-1.66,-8.98,0,30.78
2025-12-11 22:43:21.244,WT901BLE67,90856446-A74E-F462-0152-8475C1E77738,0.679,-0.564,-0.477,133.057,4.333,14.221,176.089,69.895,173.123,-13.427,-1.66,-8.98,0,30.78
2025-12-11 22:43:21.249,WT901BLE67,90856446-A74E-F462-0152-8475C1E77738,0.679,-0.564,-0.477,133.057,4.333,14.221,176.089,69.895,173.123,-13.427,-1.66,-8.98,0,30.78
2025-12-11 22:43:21.254,WT901BLE67,90856446-A74E-F462-0152-8475C1E77738,0.679,-0.564,-0.477,133.057,4.333,14.221,176.089,69.895,173.123,-13.427,-1.66,-8.98,0,30.78
2025-12-11 22:43:21.259,WT901BLE67,90856446-A74E-F462-0152-8475C1E77738,0.679,-0.564,-0.477,133.057,4.333,14.221,176.089,69.895,173.123,-13.427,-1.66,-8.98,0,30.78
2025-12-11 22:43:21.264,WT901BLE67,90856446-A74E-F462-0152-8475C1E77738,0.679,-0.564,-0.477,133.057,4.333,14.221,176.089,69.895,173.123,-13.427,-1.66,-8.98,0,30.78
2025-12-11 22:43:21.269,WT901BLE67,90856446-A74E-F462-0152-8475C1E77738,0.679,-0.564,-0.477,133.057,4.333,14.221,176.089,69.895,173.123,-13.427,-1.66,-8.98,0,30.78
2025-12-11 22:43:21.271,WT901BLE67,90856446-A74E-F462-0152-8475C1E77738,0.774,-0.559,-0.551,117.493,6.775,14.160,175.144,69.950,173.524,-13.427,-1.66,-8.98,0,31.00
2025-12-11 22:43:21.274,WT901BLE67,90856446-A74E-F462-0152-8475C1E77738,0.774,-0.559,-0.551,117.493,6.775,14.160,175.144,69.950,173.524,-13.427,-1.66,-8.98,0,31.00
2025-12-11 22:43:21.279,WT901BLE67,90856446-A74E-F462-0152-8475C1E77738,0.774,-0.559,-0.551,117.493,6.775,14.160,175.144,69.950,173.524,-13.427,-1.66,-8.98,0,31.00
2025-12-11 22:43:21.284,WT901BLE67,90856446-A74E-F462-0152-8475C1E77738,0.774,-0.559,-0.551,117.493,6.775,14.160,175.144,69.950,173.524,-13.427,-1.66,-8.98,0,31.00
2025-12-11 22:43:21.289,WT901BLE67,90856446-A74E-F462-0152-8475C1E77738,0.774,-0.559,-0.551,117.493,6.775,14.160,175.144,69.950,173.524,-13.427,-1.66,-8.98,0,31.00
2025-12-11 22:43:21.294,WT901BLE67,90856446-A74E-F462-0152-8475C1E77738,0.774,-0.559,-0.551,117.493,6.775,14.160,175.144,69.950,173.524,-13.427,-1.66,-8.98,0,31.00
2025-12-11 22:43:21.299,WT901BLE67,90856446-A74E-F462-0152-8475C1E77738,0.774,-0.559,-0.551,117.493,6.775,14.160,175.144,69.950,173.524,-13.427,-1.66,-8.98,0,31.00
2025-12-11 22:43:21.301,WT901BLE67,90856446-A74E-F462-0152-8475C1E77738,0.855,-0.655,-0.293,194.336,-15.198,-7.568,179.951,69.587,169.728,-13.427,-1.66,-8.98,0,31.00
2025-12-11 22:43:21.301,WT901BLE67,90856446-A74E-F462-0152-8475C1E77738,0.828,-0.667,-0.146,186.035,-57.983,-40.466,-168.629,71.422,173.309,-13.427,-1.66,-8.98,0,31.00
2025-12-11 22:43:21.304,WT901BLE67,90856446-A74E-F462-0152-8475C1E77738,0.828,-0.667,-0.146,186.035,-57.983,-40.466,-168.629,71.422,173.309,-13.427,-1.66,-8.98,0,31.00
2025-12-11 22:43:21.309,WT901BLE67,90856446-A74E-F462-0152-8475C1E77738,0.828,-0.667,-0.146,186.035,-57.983,-40.466,-168.629,71.422,173.309,-13.427,-1.66,-8.98,0,31.00
2025-12-11 22:43:21.314,WT901BLE67,90856446-A74E-F462-0152-8475C1E77738,0.828,-0.667,-0.146,186.035,-57.983,-40.466,-168.629,71.422,173.309,-13.427,-1.66,-8.98,0,31.00
2025-12-11 22:43:21.319,WT901BLE67,90856446-A74E-F462-0152-8475C1E77738,0.828,-0.667,-0.146,186.035,-57.983,-40.466,-168.629,71.422,173.309,-13.427,-1.66,-8.98,0,31.00
2025-12-11 22:43:21.324,WT901BLE67,90856446-A74E-F462-0152-8475C1E77738,0.828,-0.667,-0.146,186.035,-57.983,-40.466,-168.629,71.422,173.309,-13.427,-1.66,-8.98,0,31.00
2025-12-11 22:43:21.329,WT901BLE67,90856446-A74E-F462-0152-8475C1E77738,0.828,-0.667,-0.146,186.035,-57.983,-40.466,-168.629,71.422,173.309,-13.427,-1.66,-8.98,0,31.00
2025-12-11 22:43:21.331,WT901BLE67,90856446-A74E-F462-0152-8475C1E77738,0.838,-0.666,-0.230,194.031,-56.702,-30.579,-171.931,70.922,171.788,-13.427,-1.66,-8.98,0,31.00
2025-12-11 22:43:21.331,WT901BLE67,90856446-A74E-F462-0152-8475C1E77738,0.873,-0.826,-0.126,245.667,-22.766,-35.400,-154.028,72.493,179.506,-13.427,-1.66,-8.98,0,31.00
2025-12-11 22:43:21.334,WT901BLE67,90856446-A74E-F462-0152-8475C1E77738,0.873,-0.826,-0.126,245.667,-22.766,-35.400,-154.028,72.493,179.506,-13.427,-1.66,-8.98,0,31.00
2025-12-11 22:43:21.339,WT901BLE67,90856446-A74E-F462-0152-8475C1E77738,0.873,-0.826,-0.126,245.667,-22.766,-35.400,-154.028,72.493,179.506,-13.427,-1.66,-8.98,0,31.00
2025-12-11 22:43:21.344,WT901BLE67,90856446-A74E-F462-0152-8475C1E77738,0.873,-0.826,-0.126,245.667,-22.766,-35.400,-154.028,72.493,179.506,-13.427,-1.66,-8.98,0,31.00
2025-12-11 22:43:21.349,WT901BLE67,90856446-A74E-F462-0152-8475C1E77738,0.873,-0.826,-0.126,245.667,-22.766,-35.400,-154.028,72.493,179.506,-13.427,-1.66,-8.98,0,31.00
2025-12-11 22:43:21.354,WT901BLE67,90856446-A74E-F462-0152-8475C1E77738,0.873,-0.826,-0.126,245.667,-22.766,-35.400,-154.028,72.493,179.506,-13.427,-1.66,-8.98,0,31.00
2025-12-11 22:43:21.359,WT901BLE67,90856446-A74E-F462-0152-8475C1E77738,0.873,-0.826,-0.126,245.667,-22.766,-35.400,-154.028,72.493,179.506,-13.427,-1.66,-8.98,0,31.00
2025-12-11 22:43:21.364,WT901BLE67,90856446-A74E-F462-0152-8475C1E77738,0.873,-0.826,-0.126,245.667,-22.766,-35.400,-154.028,72.493,179.506,-13.427,-1.66,-8.98,0,31.00
2025-12-11 22:43:21.369,WT901BLE67,90856446-A74E-F462-0152-8475C1E77738,0.873,-0.826,-0.126,245.667,-22.766,-35.400,-154.028,72.493,179.506,-13.427,-1.66,-8.98,0,31.00
2025-12-11 22:43:21.374,WT901BLE67,90856446-A74E-F462-0152-8475C1E77738,0.873,-0.826,-0.126,245.667,-22.766,-35.400,-154.028,72.493,179.506,-13.427,-1.66,-8.98,0,31.00
2025-12-11 22:43:21.379,WT901BLE67,90856446-A74E-F462-0152-8475C1E77738,0.873,-0.826,-0.126,245.667,-22.766,-35.400,-154.028,72.493,179.506,-13.427,-1.66,-8.98,0,31.00
2025-12-11 22:43:21.384,WT901BLE67,90856446-A74E-F462-0152-8475C1E77738,0.873,-0.826,-0.126,245.667,-22.766,-35.400,-154.028,72.493,179.506,-13.427,-1.66,-8.98,0,31.00
2025-12-11 22:43:21.388,WT901BLE67,90856446-A74E-F462-0152-8475C1E77738,0.550,-0.814,-0.106,232.544,-36.316,-34.424,-157.791,72.422,178.127,-13.427,-1.66,-8.98,0,31.00
2025-12-11 22:43:21.388,WT901BLE67,90856446-A74E-F462-0152-8475C1E77738,0.624,-0.972,-0.061,169.250,-29.602,-52.673,-140.268,71.664,-174.996,-13.427,-1.66,-8.98,0,31.00
2025-12-11 22:43:21.389,WT901BLE67,90856446-A74E-F462-0152-8475C1E77738,0.624,-0.972,-0.061,169.250,-29.602,-52.673,-140.268,71.664,-174.996,-13.427,-1.66,-8.98,0,31.00
2025-12-11 22:43:21.394,WT901BLE67,90856446-A74E-F462-0152-8475C1E77738,0.624,-0.972,-0.061,169.250,-29.602,-52.673,-140.268,71.664,-174.996,-13.427,-1.66,-8.98,0,31.00
2025-12-11 22:43:21.399,WT901BLE67,90856446-A74E-F462-0152-8475C1E77738,0.624,-0.972,-0.061,169.250,-29.602,-52.673,-140.268,71.664,-174.996,-13.427,-1.66,-8.98,0,31.00
2025-12-11 22:43:21.404,WT901BLE67,90856446-A74E-F462-0152-8475C1E77738,0.624,-0.972,-0.061,169.250,-29.602,-52.673,-140.268,71.664,-174.996,-13.427,-1.66,-8.98,0,31.00
2025-12-11 22:43:21.409,WT901BLE67,90856446-A74E-F462-0152-8475C1E77738,0.624,-0.972,-0.061,169.250,-29.602,-52.673,-140.268,71.664,-174.996,-13.427,-1.66,-8.98,0,31.00
2025-12-11 22:43:21.414,WT901BLE67,90856446-A74E-F462-0152-8475C1E77738,0.624,-0.972,-0.061,169.250,-29.602,-52.673,-140.268,71.664,-174.996,-13.427,-1.66,-8.98,0,31.00
2025-12-11 22:43:21.418,WT901BLE67,90856446-A74E-F462-0152-8475C1E77738,0.779,-0.973,-0.114,202.759,1.465,-51.208,-143.751,71.768,-176.863,-13.427,-1.66,-8.98,0,31.00
2025-12-11 22:43:21.418,WT901BLE67,90856446-A74E-F462-0152-8475C1E77738,0.751,-1.249,0.120,229.919,-63.904,-86.975,-122.811,71.373,-164.767,-13.427,-1.66,-8.98,0,31.00
2025-12-11 22:43:21.419,WT901BLE67,90856446-A74E-F462-0152-8475C1E77738,0.751,-1.249,0.120,229.919,-63.904,-86.975,-122.811,71.373,-164.767,-13.427,-1.66,-8.98,0,31.00
2025-12-11 22:43:21.424,WT901BLE67,90856446-A74E-F462-0152-8475C1E77738,0.751,-1.249,0.120,229.919,-63.904,-86.975,-122.811,71.373,-164.767,-13.427,-1.66,-8.98,0,31.00
2025-12-11 22:43:21.429,WT901BLE67,90856446-A74E-F462-0152-8475C1E77738,0.751,-1.249,0.120,229.919,-63.904,-86.975,-122.811,71.373,-164.767,-13.427,-1.66,-8.98,0,31.00
2025-12-11 22:43:21.434,WT901BLE67,90856446-A74E-F462-0152-8475C1E77738,0.751,-1.249,0.120,229.919,-63.904,-86.975,-122.811,71.373,-164.767,-13.427,-1.66,-8.98,0,31.00
2025-12-11 22:43:21.439,WT901BLE67,90856446-A74E-F462-0152-8475C1E77738,0.751,-1.249,0.120,229.919,-63.904,-86.975,-122.811,71.373,-164.767,-13.427,-1.66,-8.98,0,31.00
2025-12-11 22:43:21.444,WT901BLE67,90856446-A74E-F462-0152-8475C1E77738,0.751,-1.249,0.120,229.919,-63.904,-86.975,-122.811,71.373,-164.767,-13.427,-1.66,-8.98,0,31.00
2025-12-11 22:43:21.449,WT901BLE67,90856446-A74E-F462-0152-8475C1E77738,0.751,-1.249,0.120,229.919,-63.904,-86.975,-122.811,71.373,-164.767,-13.427,-1.66,-8.98,0,31.00
2025-12-11 22:43:21.454,WT901BLE67,90856446-A74E-F462-0152-8475C1E77738,0.751,-1.249,0.120,229.919,-63.904,-86.975,-122.811,71.373,-164.767,-13.427,-1.66,-8.98,0,31.00
2025-12-11 22:43:21.459,WT901BLE67,90856446-A74E-F462-0152-8475C1E77738,0.751,-1.249,0.120,229.919,-63.904,-86.975,-122.811,71.373,-164.767,-13.427,-1.66,-8.98,0,31.00
2025-12-11 22:43:21.464,WT901BLE67,90856446-A74E-F462-0152-8475C1E77738,0.751,-1.249,0.120,229.919,-63.904,-86.975,-122.811,71.373,-164.767,-13.427,-1.66,-8.98,0,31.00
2025-12-11 22:43:21.469,WT901BLE67,90856446-A74E-F462-0152-8475C1E77738,0.751,-1.249,0.120,229.919,-63.904,-86.975,-122.811,71.373,-164.767,-13.427,-1.66,-8.98,0,31.00
2025-12-11 22:43:21.474,WT901BLE67,90856446-A74E-F462-0152-8475C1E77738,0.751,-1.249,0.120,229.919,-63.904,-86.975,-122.811,71.373,-164.767,-13.427,-1.66,-8.98,0,31.00
2025-12-11 22:43:21.478,WT901BLE67,90856446-A74E-F462-0152-8475C1E77738,0.568,-1.170,0.215,207.336,-46.448,-47.974,-128.128,71.691,-167.959,-13.427,-1.66,-8.98,0,31.00
2025-12-11 22:43:21.478,WT901BLE67,90856446-A74E-F462-0152-8475C1E77738,0.501,-1.384,0.161,243.408,-183.899,-210.754,-94.142,66.693,-145.069,-13.427,-1.66,-8.98,0,31.00
2025-12-11 22:43:21.479,WT901BLE67,90856446-A74E-F462-0152-8475C1E77738,0.501,-1.384,0.161,243.408,-183.899,-210.754,-94.142,66.693,-145.069,-13.427,-1.66,-8.98,0,31.00
2025-12-11 22:43:21.484,WT901BLE67,90856446-A74E-F462-0152-8475C1E77738,0.501,-1.384,0.161,243.408,-183.899,-210.754,-94.142,66.693,-145.069,-13.427,-1.66,-8.98,0,31.00
2025-12-11 22:43:21.489,WT901BLE67,90856446-A74E-F462-0152-8475C1E77738,0.501,-1.384,0.161,243.408,-183.899,-210.754,-94.142,66.693,-145.069,-13.427,-1.66,-8.98,0,31.00
2025-12-11 22:43:21.494,WT901BLE67,90856446-A74E-F462-0152-8475C1E77738,0.501,-1.384,0.161,243.408,-183.899,-210.754,-94.142,66.693,-145.069,-13.427,-1.66,-8.98,0,31.00
2025-12-11 22:43:21.499,WT901BLE67,90856446-A74E-F462-0152-8475C1E77738,0.501,-1.384,0.161,243.408,-183.899,-210.754,-94.142,66.693,-145.069,-13.427,-1.66,-8.98,0,31.00
2025-12-11 22:43:21.504,WT901BLE67,90856446-A74E-F462-0152-8475C1E77738,0.501,-1.384,0.161,243.408,-183.899,-210.754,-94.142,66.693,-145.069,-13.427,-1.66,-8.98,0,31.00
2025-12-11 22:43:21.509,WT901BLE67,90856446-A74E-F462-0152-8475C1E77738,0.704,-1.467,0.107,260.559,-152.893,-177.246,-101.651,68.511,-150.546,-13.427,-1.66,-8.98,0,31.00
2025-12-11 22:43:21.509,WT901BLE67,90856446-A74E-F462-0152-8475C1E77738,0.771,-1.521,-0.049,315.430,-144.836,-225.464,-72.828,57.047,-133.627,-13.427,-1.66,-8.98,0,31.00
2025-12-11 22:43:21.509,WT901BLE67,90856446-A74E-F462-0152-8475C1E77738,0.771,-1.521,-0.049,315.430,-144.836,-225.464,-72.828,57.047,-133.627,-13.427,-1.66,-8.98,0,31.00
2025-12-11 22:43:21.514,WT901BLE67,90856446-A74E-F462-0152-8475C1E77738,0.771,-1.521,-0.049,315.430,-144.836,-225.464,-72.828,57.047,-133.627,-13.427,-1.66,-8.98,0,31.00
2025-12-11 22:43:21.519,WT901BLE67,90856446-A74E-F462-0152-8475C1E77738,0.771,-1.521,-0.049,315.430,-144.836,-225.464,-72.828,57.047,-133.627,-13.427,-1.66,-8.98,0,31.00
2025-12-11 22:43:21.524,WT901BLE67,90856446-A74E-F462-0152-8475C1E77738,0.771,-1.521,-0.049,315.430,-144.836,-225.464,-72.828,57.047,-133.627,-13.427,-1.66,-8.98,0,31.00
2025-12-11 22:43:21.529,WT901BLE67,90856446-A74E-F462-0152-8475C1E77738,0.771,-1.521,-0.049,315.430,-144.836,-225.464,-72.828,57.047,-133.627,-13.427,-1.66,-8.98,0,31.00
2025-12-11 22:43:21.534,WT901BLE67,90856446-A74E-F462-0152-8475C1E77738,0.771,-1.521,-0.049,315.430,-144.836,-225.464,-72.828,57.047,-133.627,-13.427,-1.66,-8.98,0,31.00
2025-12-11 22:43:21.538,WT901BLE67,90856446-A74E-F462-0152-8475C1E77738,0.782,-1.386,0.037,298.096,-146.729,-229.553,-77.294,59.595,-135.187,-13.427,-1.66,-8.98,0,31.00
2025-12-11 22:43:21.538,WT901BLE67,90856446-A74E-F462-0152-8475C1E77738,0.762,-1.570,0.798,211.487,-77.759,-180.481,-60.727,48.131,-131.391,-13.427,-1.66,-8.98,0,31.00
2025-12-11 22:43:21.539,WT901BLE67,90856446-A74E-F462-0152-8475C1E77738,0.762,-1.570,0.798,211.487,-77.759,-180.481,-60.727,48.131,-131.391,-13.427,-1.66,-8.98,0,31.00
2025-12-11 22:43:21.544,WT901BLE67,90856446-A74E-F462-0152-8475C1E77738,0.762,-1.570,0.798,211.487,-77.759,-180.481,-60.727,48.131,-131.391,-13.427,-1.66,-8.98,0,31.00
2025-12-11 22:43:21.549,WT901BLE67,90856446-A74E-F462-0152-8475C1E77738,0.762,-1.570,0.798,211.487,-77.759,-180.481,-60.727,48.131,-131.391,-13.427,-1.66,-8.98,0,31.00
2025-12-11 22:43:21.554,WT901BLE67,90856446-A74E-F462-0152-8475C1E77738,0.762,-1.570,0.798,211.487,-77.759,-180.481,-60.727,48.131,-131.391,-13.427,-1.66,-8.98,0,31.00
2025-12-11 22:43:21.559,WT901BLE67,90856446-A74E-F462-0152-8475C1E77738,0.762,-1.570,0.798,211.487,-77.759,-180.481,-60.727,48.131,-131.391,-13.427,-1.66,-8.98,0,31.00
2025-12-11 22:43:21.564,WT901BLE67,90856446-A74E-F462-0152-8475C1E77738,0.762,-1.570,0.798,211.487,-77.759,-180.481,-60.727,48.131,-131.391,-13.427,-1.66,-8.98,0,31.00
2025-12-11 22:43:21.569,WT901BLE67,90856446-A74E-F462-0152-8475C1E77738,0.762,-1.570,0.798,211.487,-77.759,-180.481,-60.727,48.131,-131.391,-13.427,-1.66,-8.98,0,31.00
2025-12-11 22:43:21.574,WT901BLE67,90856446-A74E-F462-0152-8475C1E77738,0.762,-1.570,0.798,211.487,-77.759,-180.481,-60.727,48.131,-131.391,-13.427,-1.66,-8.98,0,31.00
2025-12-11 22:43:21.579,WT901BLE67,90856446-A74E-F462-0152-8475C1E77738,0.762,-1.570,0.798,211.487,-77.759,-180.481,-60.727,48.131,-131.391,-13.427,-1.66,-8.98,0,31.00
2025-12-11 22:43:21.584,WT901BLE67,90856446-A74E-F462-0152-8475C1E77738,0.762,-1.570,0.798,211.487,-77.759,-180.481,-60.727,48.131,-131.391,-13.427,-1.66,-8.98,0,31.00
2025-12-11 22:43:21.589,WT901BLE67,90856446-A74E-F462-0152-8475C1E77738,0.762,-1.570,0.798,211.487,-77.759,-180.481,-60.727,48.131,-131.391,-13.427,-1.66,-8.98,0,31.00
2025-12-11 22:43:21.594,WT901BLE67,90856446-A74E-F462-0152-8475C1E77738,0.762,-1.570,0.798,211.487,-77.759,-180.481,-60.727,48.131,-131.391,-13.427,-1.66,-8.98,0,31.00
2025-12-11 22:43:21.598,WT901BLE67,90856446-A74E-F462-0152-8475C1E77738,0.901,-1.517,0.566,239.990,-108.154,-185.364,-62.677,50.103,-131.155,-13.427,-1.66,-8.98,0,31.00
2025-12-11 22:43:21.598,WT901BLE67,90856446-A74E-F462-0152-8475C1E77738,0.844,-1.958,0.968,249.817,-51.575,-185.364,-54.014,40.919,-134.341,-13.427,-1.66,-8.98,0,31.00
2025-12-11 22:43:21.599,WT901BLE67,90856446-A74E-F462-0152-8475C1E77738,0.844,-1.958,0.968,249.817,-51.575,-185.364,-54.014,40.919,-134.341,-13.427,-1.66,-8.98,0,31.00
2025-12-11 22:43:21.604,WT901BLE67,90856446-A74E-F462-0152-8475C1E77738,0.844,-1.958,0.968,249.817,-51.575,-185.364,-54.014,40.919,-134.341,-13.427,-1.66,-8.98,0,31.00
2025-12-11 22:43:21.609,WT901BLE67,90856446-A74E-F462-0152-8475C1E77738,0.844,-1.958,0.968,249.817,-51.575,-185.364,-54.014,40.919,-134.341,-13.427,-1.66,-8.98,0,31.00
2025-12-11 22:43:21.614,WT901BLE67,90856446-A74E-F462-0152-8475C1E77738,0.844,-1.958,0.968,249.817,-51.575,-185.364,-54.014,40.919,-134.341,-13.427,-1.66,-8.98,0,31.00
2025-12-11 22:43:21.619,WT901BLE67,90856446-A74E-F462-0152-8475C1E77738,0.844,-1.958,0.968,249.817,-51.575,-185.364,-54.014,40.919,-134.341,-13.427,-1.66,-8.98,0,31.00
2025-12-11 22:43:21.624,WT901BLE67,90856446-A74E-F462-0152-8475C1E77738,0.844,-1.958,0.968,249.817,-51.575,-185.364,-54.014,40.919,-134.341,-13.427,-1.66,-8.98,0,31.00
2025-12-11 22:43:21.629,WT901BLE67,90856446-A74E-F462-0152-8475C1E77738,0.844,-1.958,0.968,249.817,-51.575,-185.364,-54.014,40.919,-134.341,-13.427,-1.66,-8.98,0,31.00
2025-12-11 22:43:21.629,WT901BLE67,90856446-A74E-F462-0152-8475C1E77738,1.022,-1.900,1.098,224.487,-44.678,-179.077,-55.942,42.781,-133.456,-13.427,-1.66,-8.98,0,31.00
2025-12-11 22:43:21.629,WT901BLE67,90856446-A74E-F462-0152-8475C1E77738,1.025,-2.237,1.167,168.091,0.427,-111.267,-46.423,34.958,-136.769,-13.427,-1.66,-8.98,0,31.00
2025-12-11 22:43:21.634,WT901BLE67,90856446-A74E-F462-0152-8475C1E77738,1.025,-2.237,1.167,168.091,0.427,-111.267,-46.423,34.958,-136.769,-13.427,-1.66,-8.98,0,31.00
2025-12-11 22:43:21.639,WT901BLE67,90856446-A74E-F462-0152-8475C1E77738,1.025,-2.237,1.167,168.091,0.427,-111.267,-46.423,34.958,-136.769,-13.427,-1.66,-8.98,0,31.00
2025-12-11 22:43:21.644,WT901BLE67,90856446-A74E-F462-0152-8475C1E77738,1.025,-2.237,1.167,168.091,0.427,-111.267,-46.423,34.958,-136.769,-13.427,-1.66,-8.98,0,31.00
2025-12-11 22:43:21.649,WT901BLE67,90856446-A74E-F462-0152-8475C1E77738,1.025,-2.237,1.167,168.091,0.427,-111.267,-46.423,34.958,-136.769,-13.427,-1.66,-8.98,0,31.00
2025-12-11 22:43:21.654,WT901BLE67,90856446-A74E-F462-0152-8475C1E77738,1.025,-2.237,1.167,168.091,0.427,-111.267,-46.423,34.958,-136.769,-13.427,-1.66,-8.98,0,31.00
2025-12-11 22:43:21.659,WT901BLE67,90856446-A74E-F462-0152-8475C1E77738,1.025,-2.237,1.167,168.091,0.427,-111.267,-46.423,34.958,-136.769,-13.427,-1.66,-8.98,0,31.00
2025-12-11 22:43:21.661,WT901BLE67,90856446-A74E-F462-0152-8475C1E77738,0.927,-2.089,0.973,225.281,-65.857,-117.310,-47.642,35.804,-135.906,-13.427,-1.66,-8.98,0,31.00
2025-12-11 22:43:21.661,WT901BLE67,90856446-A74E-F462-0152-8475C1E77738,0.880,-1.870,0.698,104.736,11.108,-84.167,-43.923,32.888,-140.054,-13.427,-1.66,-8.98,0,31.00
2025-12-11 22:43:21.664,WT901BLE67,90856446-A74E-F462-0152-8475C1E77738,0.880,-1.870,0.698,104.736,11.108,-84.167,-43.923,32.888,-140.054,-13.427,-1.66,-8.98,0,31.00
2025-12-11 22:43:21.669,WT901BLE67,90856446-A74E-F462-0152-8475C1E77738,0.880,-1.870,0.698,104.736,11.108,-84.167,-43.923,32.888,-140.054,-13.427,-1.66,-8.98,0,31.00
2025-12-11 22:43:21.674,WT901BLE67,90856446-A74E-F462-0152-8475C1E77738,0.880,-1.870,0.698,104.736,11.108,-84.167,-43.923,32.888,-140.054,-13.427,-1.66,-8.98,0,31.00
2025-12-11 22:43:21.679,WT901BLE67,90856446-A74E-F462-0152-8475C1E77738,0.880,-1.870,0.698,104.736,11.108,-84.167,-43.923,32.888,-140.054,-13.427,-1.66,-8.98,0,31.00
2025-12-11 22:43:21.684,WT901BLE67,90856446-A74E-F462-0152-8475C1E77738,0.880,-1.870,0.698,104.736,11.108,-84.167,-43.923,32.888,-140.054,-13.427,-1.66,-8.98,0,31.00
2025-12-11 22:43:21.689,WT901BLE67,90856446-A74E-F462-0152-8475C1E77738,0.880,-1.870,0.698,104.736,11.108,-84.167,-43.923,32.888,-140.054,-13.427,-1.66,-8.98,0,31.00
2025-12-11 22:43:21.694,WT901BLE67,90856446-A74E-F462-0152-8475C1E77738,0.880,-1.870,0.698,104.736,11.108,-84.167,-43.923,32.888,-140.054,-13.427,-1.66,-8.98,0,31.00
2025-12-11 22:43:21.699,WT901BLE67,90856446-A74E-F462-0152-8475C1E77738,0.880,-1.870,0.698,104.736,11.108,-84.167,-43.923,32.888,-140.054,-13.427,-1.66,-8.98,0,31.00
2025-12-11 22:43:21.704,WT901BLE67,90856446-A74E-F462-0152-8475C1E77738,0.880,-1.870,0.698,104.736,11.108,-84.167,-43.923,32.888,-140.054,-13.427,-1.66,-8.98,0,31.00
2025-12-11 22:43:21.709,WT901BLE67,90856446-A74E-F462-0152-8475C1E77738,0.880,-1.870,0.698,104.736,11.108,-84.167,-43.923,32.888,-140.054,-13.427,-1.66,-8.98,0,31.00
2025-12-11 22:43:21.714,WT901BLE67,90856446-A74E-F462-0152-8475C1E77738,0.880,-1.870,0.698,104.736,11.108,-84.167,-43.923,32.888,-140.054,-13.427,-1.66,-8.98,0,31.00
2025-12-11 22:43:21.719,WT901BLE67,90856446-A74E-F462-0152-8475C1E77738,0.880,-1.870,0.698,104.736,11.108,-84.167,-43.923,32.888,-140.054,-13.427,-1.66,-8.98,0,31.00
2025-12-11 22:43:21.721,WT901BLE67,90856446-A74E-F462-0152-8475C1E77738,1.044,-1.921,0.732,96.008,6.287,-87.891,-44.522,33.398,-139.246,-13.427,-1.66,-8.98,0,31.00
2025-12-11 22:43:21.721,WT901BLE67,90856446-A74E-F462-0152-8475C1E77738,1.002,-1.839,0.573,120.544,-17.578,-76.477,-40.792,30.657,-142.559,-13.427,-1.66,-8.98,0,31.00
2025-12-11 22:43:21.724,WT901BLE67,90856446-A74E-F462-0152-8475C1E77738,1.002,-1.839,0.573,120.544,-17.578,-76.477,-40.792,30.657,-142.559,-13.427,-1.66,-8.98,0,31.00
2025-12-11 22:43:21.729,WT901BLE67,90856446-A74E-F462-0152-8475C1E77738,1.002,-1.839,0.573,120.544,-17.578,-76.477,-40.792,30.657,-142.559,-13.427,-1.66,-8.98,0,31.00
2025-12-11 22:43:21.734,WT901BLE67,90856446-A74E-F462-0152-8475C1E77738,1.002,-1.839,0.573,120.544,-17.578,-76.477,-40.792,30.657,-142.559,-13.427,-1.66,-8.98,0,31.00
2025-12-11 22:43:21.739,WT901BLE67,90856446-A74E-F462-0152-8475C1E77738,1.002,-1.839,0.573,120.544,-17.578,-76.477,-40.792,30.657,-142.559,-13.427,-1.66,-8.98,0,31.00
2025-12-11 22:43:21.744,WT901BLE67,90856446-A74E-F462-0152-8475C1E77738,1.002,-1.839,0.573,120.544,-17.578,-76.477,-40.792,30.657,-142.559,-13.427,-1.66,-8.98,0,31.00
2025-12-11 22:43:21.749,WT901BLE67,90856446-A74E-F462-0152-8475C1E77738,1.002,-1.839,0.573,120.544,-17.578,-76.477,-40.792,30.657,-142.559,-13.427,-1.66,-8.98,0,31.00
2025-12-11 22:43:21.751,WT901BLE67,90856446-A74E-F462-0152-8475C1E77738,1.003,-1.876,0.581,116.638,-17.456,-78.369,-41.715,31.295,-142.026,-13.427,-1.66,-8.98,0,31.00
2025-12-11 22:43:21.754,WT901BLE67,90856446-A74E-F462-0152-8475C1E77738,1.003,-1.876,0.581,116.638,-17.456,-78.369,-41.715,31.295,-142.026,-13.427,-1.66,-8.98,0,31.00
2025-12-11 22:43:21.759,WT901BLE67,90856446-A74E-F462-0152-8475C1E77738,1.003,-1.876,0.581,116.638,-17.456,-78.369,-41.715,31.295,-142.026,-13.427,-1.66,-8.98,0,31.00
2025-12-11 22:43:21.764,WT901BLE67,90856446-A74E-F462-0152-8475C1E77738,1.003,-1.876,0.581,116.638,-17.456,-78.369,-41.715,31.295,-142.026,-13.427,-1.66,-8.98,0,31.00
2025-12-11 22:43:21.769,WT901BLE67,90856446-A74E-F462-0152-8475C1E77738,1.003,-1.876,0.581,116.638,-17.456,-78.369,-41.715,31.295,-142.026,-13.427,-1.66,-8.98,0,31.00
2025-12-11 22:43:21.774,WT901BLE67,90856446-A74E-F462-0152-8475C1E77738,1.003,-1.876,0.581,116.638,-17.456,-78.369,-41.715,31.295,-142.026,-13.427,-1.66,-8.98,0,31.00
2025-12-11 22:43:21.779,WT901BLE67,90856446-A74E-F462-0152-8475C1E77738,1.003,-1.876,0.581,116.638,-17.456,-78.369,-41.715,31.295,-142.026,-13.427,-1.66,-8.98,0,31.00
2025-12-11 22:43:21.781,WT901BLE67,90856446-A74E-F462-0152-8475C1E77738,0.981,-1.942,0.644,81.970,-7.446,-50.110,-37.727,28.889,-144.234,-13.427,-1.66,-8.98,0,31.00
2025-12-11 22:43:21.781,WT901BLE67,90856446-A74E-F462-0152-8475C1E77738,0.986,-1.960,0.694,55.359,-4.211,-33.203,-35.739,27.477,-145.497,-13.427,-1.66,-8.98,0,31.00
2025-12-11 22:43:21.784,WT901BLE67,90856446-A74E-F462-0152-8475C1E77738,0.986,-1.960,0.694,55.359,-4.211,-33.203,-35.739,27.477,-145.497,-13.427,-1.66,-8.98,0,31.00
2025-12-11 22:43:21.789,WT901BLE67,90856446-A74E-F462-0152-8475C1E77738,0.986,-1.960,0.694,55.359,-4.211,-33.203,-35.739,27.477,-145.497,-13.427,-1.66,-8.98,0,31.00
2025-12-11 22:43:21.793,WT901BLE67,90856446-A74E-F462-0152-8475C1E77738,0.986,-1.960,0.694,55.359,-4.211,-33.203,-35.739,27.477,-145.497,-13.427,-1.66,-8.98,0,31.00
2025-12-11 22:43:21.799,WT901BLE67,90856446-A74E-F462-0152-8475C1E77738,0.986,-1.960,0.694,55.359,-4.211,-33.203,-35.739,27.477,-145.497,-13.427,-1.66,-8.98,0,31.00
2025-12-11 22:43:21.804,WT901BLE67,90856446-A74E-F462-0152-8475C1E77738,0.986,-1.960,0.694,55.359,-4.211,-33.203,-35.739,27.477,-145.497,-13.427,-1.66,-8.98,0,31.00
2025-12-11 22:43:21.809,WT901BLE67,90856446-A74E-F462-0152-8475C1E77738,0.986,-1.960,0.694,55.359,-4.211,-33.203,-35.739,27.477,-145.497,-13.427,-1.66,-8.98,0,31.00
2025-12-11 22:43:21.814,WT901BLE67,90856446-A74E-F462-0152-8475C1E77738,0.986,-1.960,0.694,55.359,-4.211,-33.203,-35.739,27.477,-145.497,-13.427,-1.66,-8.98,0,31.00
2025-12-11 22:43:21.819,WT901BLE67,90856446-A74E-F462-0152-8475C1E77738,0.986,-1.960,0.694,55.359,-4.211,-33.203,-35.739,27.477,-145.497,-13.427,-1.66,-8.98,0,31.00
2025-12-11 22:43:21.824,WT901BLE67,90856446-A74E-F462-0152-8475C1E77738,0.986,-1.960,0.694,55.359,-4.211,-33.203,-35.739,27.477,-145.497,-13.427,-1.66,-8.98,0,31.00
2025-12-11 22:43:21.829,WT901BLE67,90856446-A74E-F462-0152-8475C1E77738,0.986,-1.960,0.694,55.359,-4.211,-33.203,-35.739,27.477,-145.497,-13.427,-1.66,-8.98,0,31.00
2025-12-11 22:43:21.834,WT901BLE67,90856446-A74E-F462-0152-8475C1E77738,0.986,-1.960,0.694,55.359,-4.211,-33.203,-35.739,27.477,-145.497,-13.427,-1.66,-8.98,0,31.00
2025-12-11 22:43:21.838,WT901BLE67,90856446-A74E-F462-0152-8475C1E77738,0.900,-1.985,0.714,63.660,-13.184,-41.260,-36.167,27.713,-145.217,-13.427,-1.66,-8.98,0,31.00
2025-12-11 22:43:21.838,WT901BLE67,90856446-A74E-F462-0152-8475C1E77738,0.914,-1.874,0.618,11.597,25.024,-4.517,-35.057,27.664,-146.387,-13.427,-1.66,-8.98,0,31.00
2025-12-11 22:43:21.839,WT901BLE67,90856446-A74E-F462-0152-8475C1E77738,0.914,-1.874,0.618,11.597,25.024,-4.517,-35.057,27.664,-146.387,-13.427,-1.66,-8.98,0,31.00
2025-12-11 22:43:21.844,WT901BLE67,90856446-A74E-F462-0152-8475C1E77738,0.914,-1.874,0.618,11.597,25.024,-4.517,-35.057,27.664,-146.387,-13.427,-1.66,-8.98,0,31.00
2025-12-11 22:43:21.849,WT901BLE67,90856446-A74E-F462-0152-8475C1E77738,0.914,-1.874,0.618,11.597,25.024,-4.517,-35.057,27.664,-146.387,-13.427,-1.66,-8.98,0,31.00
2025-12-11 22:43:21.854,WT901BLE67,90856446-A74E-F462-0152-8475C1E77738,0.914,-1.874,0.618,11.597,25.024,-4.517,-35.057,27.664,-146.387,-13.427,-1.66,-8.98,0,31.00
2025-12-11 22:43:21.859,WT901BLE67,90856446-A74E-F462-0152-8475C1E77738,0.914,-1.874,0.618,11.597,25.024,-4.517,-35.057,27.664,-146.387,-13.427,-1.66,-8.98,0,31.00
2025-12-11 22:43:21.864,WT901BLE67,90856446-A74E-F462-0152-8475C1E77738,0.914,-1.874,0.618,11.597,25.024,-4.517,-35.057,27.664,-146.387,-13.427,-1.66,-8.98,0,31.00
2025-12-11 22:43:21.869,WT901BLE67,90856446-A74E-F462-0152-8475C1E77738,0.914,-1.874,0.618,11.597,25.024,-4.517,-35.057,27.664,-146.387,-13.427,-1.66,-8.98,0,31.00
2025-12-11 22:43:21.869,WT901BLE67,90856446-A74E-F462-0152-8475C1E77738,0.913,-1.903,0.633,22.400,19.104,-8.179,-35.085,27.493,-146.184,-13.427,-1.66,-8.98,0,31.00
2025-12-11 22:43:21.869,WT901BLE67,90856446-A74E-F462-0152-8475C1E77738,0.894,-1.777,0.620,-4.028,14.038,-13.428,-35.502,28.191,-147.200,-13.427,-1.66,-8.98,0,31.00
2025-12-11 22:43:21.874,WT901BLE67,90856446-A74E-F462-0152-8475C1E77738,0.894,-1.777,0.620,-4.028,14.038,-13.428,-35.502,28.191,-147.200,-13.427,-1.66,-8.98,0,31.00
2025-12-11 22:43:21.879,WT901BLE67,90856446-A74E-F462-0152-8475C1E77738,0.894,-1.777,0.620,-4.028,14.038,-13.428,-35.502,28.191,-147.200,-13.427,-1.66,-8.98,0,31.00
2025-12-11 22:43:21.884,WT901BLE67,90856446-A74E-F462-0152-8475C1E77738,0.894,-1.777,0.620,-4.028,14.038,-13.428,-35.502,28.191,-147.200,-13.427,-1.66,-8.98,0,31.00
2025-12-11 22:43:21.889,WT901BLE67,90856446-A74E-F462-0152-8475C1E77738,0.894,-1.777,0.620,-4.028,14.038,-13.428,-35.502,28.191,-147.200,-13.427,-1.66,-8.98,0,31.00
2025-12-11 22:43:21.894,WT901BLE67,90856446-A74E-F462-0152-8475C1E77738,0.894,-1.777,0.620,-4.028,14.038,-13.428,-35.502,28.191,-147.200,-13.427,-1.66,-8.98,0,31.00
2025-12-11 22:43:21.898,WT901BLE67,90856446-A74E-F462-0152-8475C1E77738,0.959,-1.808,0.622,-4.211,19.104,-8.728,-35.354,28.152,-146.986,-13.427,-1.66,-8.98,0,31.00
2025-12-11 22:43:21.898,WT901BLE67,90856446-A74E-F462-0152-8475C1E77738,0.954,-1.585,0.499,-9.949,2.808,-18.372,-36.227,27.971,-148.057,-13.427,-1.66,-8.98,0,31.00
2025-12-11 22:43:21.899,WT901BLE67,90856446-A74E-F462-0152-8475C1E77738,0.954,-1.585,0.499,-9.949,2.808,-18.372,-36.227,27.971,-148.057,-13.427,-1.66,-8.98,0,31.00
2025-12-11 22:43:21.904,WT901BLE67,90856446-A74E-F462-0152-8475C1E77738,0.954,-1.585,0.499,-9.949,2.808,-18.372,-36.227,27.971,-148.057,-13.427,-1.66,-8.98,0,31.00
2025-12-11 22:43:21.909,WT901BLE67,90856446-A74E-F462-0152-8475C1E77738,0.954,-1.585,0.499,-9.949,2.808,-18.372,-36.227,27.971,-148.057,-13.427,-1.66,-8.98,0,31.00
2025-12-11 22:43:21.914,WT901BLE67,90856446-A74E-F462-0152-8475C1E77738,0.954,-1.585,0.499,-9.949,2.808,-18.372,-36.227,27.971,-148.057,-13.427,-1.66,-8.98,0,31.00
2025-12-11 22:43:21.919,WT901BLE67,90856446-A74E-F462-0152-8475C1E77738,0.954,-1.585,0.499,-9.949,2.808,-18.372,-36.227,27.971,-148.057,-13.427,-1.66,-8.98,0,31.00
2025-12-11 22:43:21.924,WT901BLE67,90856446-A74E-F462-0152-8475C1E77738,0.954,-1.585,0.499,-9.949,2.808,-18.372,-36.227,27.971,-148.057,-13.427,-1.66,-8.98,0,31.00
2025-12-11 22:43:21.929,WT901BLE67,90856446-A74E-F462-0152-8475C1E77738,0.954,-1.585,0.499,-9.949,2.808,-18.372,-36.227,27.971,-148.057,-13.427,-1.66,-8.98,0,31.00
2025-12-11 22:43:21.934,WT901BLE67,90856446-A74E-F462-0152-8475C1E77738,0.954,-1.585,0.499,-9.949,2.808,-18.372,-36.227,27.971,-148.057,-13.427,-1.66,-8.98,0,31.00
2025-12-11 22:43:21.939,WT901BLE67,90856446-A74E-F462-0152-8475C1E77738,0.954,-1.585,0.499,-9.949,2.808,-18.372,-36.227,27.971,-148.057,-13.427,-1.66,-8.98,0,31.00
2025-12-11 22:43:21.944,WT901BLE67,90856446-A74E-F462-0152-8475C1E77738,0.954,-1.585,0.499,-9.949,2.808,-18.372,-36.227,27.971,-148.057,-13.427,-1.66,-8.98,0,31.00
2025-12-11 22:43:21.949,WT901BLE67,90856446-A74E-F462-0152-8475C1E77738,0.954,-1.585,0.499,-9.949,2.808,-18.372,-36.227,27.971,-148.057,-13.427,-1.66,-8.98,0,31.00
2025-12-11 22:43:21.954,WT901BLE67,90856446-A74E-F462-0152-8475C1E77738,0.954,-1.585,0.499,-9.949,2.808,-18.372,-36.227,27.971,-148.057,-13.427,-1.66,-8.98,0,31.00
2025-12-11 22:43:21.959,WT901BLE67,90856446-A74E-F462-0152-8475C1E77738,0.904,-1.639,0.525,-8.911,4.517,-19.714,-36.035,28.054,-147.870,-13.427,-1.66,-8.98,0,31.00
2025-12-11 22:43:21.959,WT901BLE67,90856446-A74E-F462-0152-8475C1E77738,0.930,-1.515,0.487,-17.334,3.174,-12.939,-37.084,27.702,-148.579,-13.427,-1.66,-8.98,0,31.00
2025-12-11 22:43:21.959,WT901BLE67,90856446-A74E-F462-0152-8475C1E77738,0.930,-1.515,0.487,-17.334,3.174,-12.939,-37.084,27.702,-148.579,-13.427,-1.66,-8.98,0,31.00
2025-12-11 22:43:21.964,WT901BLE67,90856446-A74E-F462-0152-8475C1E77738,0.930,-1.515,0.487,-17.334,3.174,-12.939,-37.084,27.702,-148.579,-13.427,-1.66,-8.98,0,31.00
2025-12-11 22:43:21.969,WT901BLE67,90856446-A74E-F462-0152-8475C1E77738,0.930,-1.515,0.487,-17.334,3.174,-12.939,-37.084,27.702,-148.579,-13.427,-1.66,-8.98,0,31.00
2025-12-11 22:43:21.974,WT901BLE67,90856446-A74E-F462-0152-8475C1E77738,0.930,-1.515,0.487,-17.334,3.174,-12.939,-37.084,27.702,-148.579,-13.427,-1.66,-8.98,0,31.00
2025-12-11 22:43:21.979,WT901BLE67,90856446-A74E-F462-0152-8475C1E77738,0.930,-1.515,0.487,-17.334,3.174,-12.939,-37.084,27.702,-148.579,-13.427,-1.66,-8.98,0,31.00
2025-12-11 22:43:21.984,WT901BLE67,90856446-A74E-F462-0152-8475C1E77738,0.930,-1.515,0.487,-17.334,3.174,-12.939,-37.084,27.702,-148.579,-13.427,-1.66,-8.98,0,31.00
2025-12-11 22:43:21.989,WT901BLE67,90856446-A74E-F462-0152-8475C1E77738,0.930,-1.515,0.487,-17.334,3.174,-12.939,-37.084,27.702,-148.579,-13.427,-1.66,-8.98,0,31.00
2025-12-11 22:43:21.989,WT901BLE67,90856446-A74E-F462-0152-8475C1E77738,0.810,-1.503,0.440,-18.494,-1.404,-13.367,-36.843,27.757,-148.442,-13.427,-1.66,-8.98,0,31.00
2025-12-11 22:43:21.989,WT901BLE67,90856446-A74E-F462-0152-8475C1E77738,0.816,-1.481,0.469,-0.305,0.000,-36.560,-38.013,27.213,-149.568,-13.427,-1.66,-8.98,0,31.00
2025-12-11 22:43:21.994,WT901BLE67,90856446-A74E-F462-0152-8475C1E77738,0.816,-1.481,0.469,-0.305,0.000,-36.560,-38.013,27.213,-149.568,-13.427,-1.66,-8.98,0,31.00
2025-12-11 22:43:21.999,WT901BLE67,90856446-A74E-F462-0152-8475C1E77738,0.816,-1.481,0.469,-0.305,0.000,-36.560,-38.013,27.213,-149.568,-13.427,-1.66,-8.98,0,31.00
2025-12-11 22:43:22.004,WT901BLE67,90856446-A74E-F462-0152-8475C1E77738,0.816,-1.481,0.469,-0.305,0.000,-36.560,-38.013,27.213,-149.568,-13.427,-1.66,-8.98,0,31.00
2025-12-11 22:43:22.009,WT901BLE67,90856446-A74E-F462-0152-8475C1E77738,0.816,-1.481,0.469,-0.305,0.000,-36.560,-38.013,27.213,-149.568,-13.427,-1.66,-8.98,0,31.00
2025-12-11 22:43:22.014,WT901BLE67,90856446-A74E-F462-0152-8475C1E77738,0.816,-1.481,0.469,-0.305,0.000,-36.560,-38.013,27.213,-149.568,-13.427,-1.66,-8.98,0,31.00
2025-12-11 22:43:22.018,WT901BLE67,90856446-A74E-F462-0152-8475C1E77738,0.890,-1.497,0.500,-8.606,2.258,-29.297,-37.859,27.433,-149.244,-13.427,-1.66,-8.98,0,31.00
2025-12-11 22:43:22.018,WT901BLE67,90856446-A74E-F462-0152-8475C1E77738,0.875,-1.492,0.449,10.986,-11.414,-49.805,-38.392,26.027,-151.029,-13.427,-1.66,-8.98,0,31.00
2025-12-11 22:43:22.019,WT901BLE67,90856446-A74E-F462-0152-8475C1E77738,0.875,-1.492,0.449,10.986,-11.414,-49.805,-38.392,26.027,-151.029,-13.427,-1.66,-8.98,0,31.00
2025-12-11 22:43:22.024,WT901BLE67,90856446-A74E-F462-0152-8475C1E77738,0.875,-1.492,0.449,10.986,-11.414,-49.805,-38.392,26.027,-151.029,-13.427,-1.66,-8.98,0,31.00
2025-12-11 22:43:22.030,WT901BLE67,90856446-A74E-F462-0152-8475C1E77738,0.875,-1.492,0.449,10.986,-11.414,-49.805,-38.392,26.027,-151.029,-13.427,-1.66,-8.98,0,31.00
2025-12-11 22:43:22.033,WT901BLE67,90856446-A74E-F462-0152-8475C1E77738,0.875,-1.492,0.449,10.986,-11.414,-49.805,-38.392,26.027,-151.029,-13.427,-1.66,-8.98,0,31.00
2025-12-11 22:43:22.039,WT901BLE67,90856446-A74E-F462-0152-8475C1E77738,0.875,-1.492,0.449,10.986,-11.414,-49.805,-38.392,26.027,-151.029,-13.427,-1.66,-8.98,0,31.00
2025-12-11 22:43:22.044,WT901BLE67,90856446-A74E-F462-0152-8475C1E77738,0.875,-1.492,0.449,10.986,-11.414,-49.805,-38.392,26.027,-151.029,-13.427,-1.66,-8.98,0,31.00
2025-12-11 22:43:22.049,WT901BLE67,90856446-A74E-F462-0152-8475C1E77738,0.875,-1.492,0.449,10.986,-11.414,-49.805,-38.392,26.027,-151.029,-13.427,-1.66,-8.98,0,31.00
2025-12-11 22:43:22.054,WT901BLE67,90856446-A74E-F462-0152-8475C1E77738,0.875,-1.492,0.449,10.986,-11.414,-49.805,-38.392,26.027,-151.029,-13.427,-1.66,-8.98,0,31.00
2025-12-11 22:43:22.059,WT901BLE67,90856446-A74E-F462-0152-8475C1E77738,0.875,-1.492,0.449,10.986,-11.414,-49.805,-38.392,26.027,-151.029,-13.427,-1.66,-8.98,0,31.00
