Timestamp,DeviceName,Mac,AX,AY,AZ,GX,GY,GZ,AngX,AngY,AngZ,HX,HY,HZ,Electric,Temp
2025-12-11 22:15:37.267,WT901BLE67,90856446-A74E-F462-0152-8475C1E77738,1.401,-1.033,0.795,0.000,0.000,0.000,-0.494,0.775,-72.729,30.8,-11.373,-71.6,100,27.60
2025-12-11 22:15:37.267,WT901BLE67,90856446-A74E-F462-0152-8475C1E77738,1.401,-1.033,0.795,0.000,0.000,0.000,-0.494,0.775,-72.729,30.8,-11.373,-71.6,100,27.60
2025-12-11 22:15:37.267,WT901BLE67,90856446-A74E-F462-0152-8475C1E77738,1.401,-1.033,0.795,0.000,0.000,0.000,-0.494,0.775,-72.729,30.8,-11.373,-71.6,100,27.60
2025-12-11 22:15:37.270,WT901BLE67,90856446-A74E-F462-0152-8475C1E77738,1.401,-1.033,0.795,0.000,0.000,0.000,-0.494,0.775,-72.729,30.8,-11.373,-71.6,100,27.60
2025-12-11 22:15:37.275,WT901BLE67,90856446-A74E-F462-0152-8475C1E77738,1.401,-1.033,0.795,0.000,0.000,0.000,-0.494,0.775,-72.729,30.8,-11.373,-71.6,100,27.60
2025-12-11 22:15:37.280,WT901BLE67,90856446-A74E-F462-0152-8475C1E77738,1.401,-1.033,0.795,0.000,0.000,0.000,-0.494,0.775,-72.729,30.8,-11.373,-71.6,100,27.60
2025-12-11 22:15:37.286,WT901BLE67,90856446-A74E-F462-0152-8475C1E77738,1.401,-1.033,0.795,0.000,0.000,0.000,-0.494,0.775,-72.729,30.8,-11.373,-71.6,100,27.60
2025-12-11 22:15:37.290,WT901BLE67,90856446-A74E-F462-0152-8475C1E77738,1.401,-1.033,0.795,0.000,0.000,0.000,-0.494,0.775,-72.729,30.8,-11.373,-71.6,100,27.60
2025-12-11 22:15:37.295,WT901BLE67,90856446-A74E-F462-0152-8475C1E77738,1.401,-1.033,0.795,0.000,0.000,0.000,-0.494,0.775,-72.729,30.8,-11.373,-71.6,100,27.60
2025-12-11 22:15:37.300,WT901BLE67,90856446-A74E-F462-0152-8475C1E77738,1.401,-1.033,0.795,0.000,0.000,0.000,-0.494,0.775,-72.729,30.8,-11.373,-71.6,100,27.60
2025-12-11 22:15:37.305,WT901BLE67,90856446-A74E-F462-0152-8475C1E77738,1.401,-1.033,0.795,0.000,0.000,0.000,-0.494,0.775,-72.729,30.8,-11.373,-71.6,100,27.60
2025-12-11 22:15:37.308,WT901BLE67,90856446-A74E-F462-0152-8475C1E77738,1.401,-1.033,0.793,0.000,0.000,0.000,-0.494,0.775,-72.729,30.8,-11.373,-71.6,100,27.60
2025-12-11 22:15:37.308,WT901BLE67,90856446-A74E-F462-0152-8475C1E77738,1.401,-1.033,0.795,0.000,0.000,0.000,-0.494,0.775,-72.729,30.8,-11.373,-71.6,100,27.60
2025-12-11 22:15:37.310,WT901BLE67,90856446-A74E-F462-0152-8475C1E77738,1.401,-1.033,0.795,0.000,0.000,0.000,-0.494,0.775,-72.729,30.8,-11.373,-71.6,100,27.60
2025-12-11 22:15:37.315,WT901BLE67,90856446-A74E-F462-0152-8475C1E77738,1.401,-1.033,0.795,0.000,0.000,0.000,-0.494,0.775,-72.729,30.8,-11.373,-71.6,100,27.60
2025-12-11 22:15:37.320,WT901BLE67,90856446-A74E-F462-0152-8475C1E77738,1.401,-1.033,0.795,0.000,0.000,0.000,-0.494,0.775,-72.729,30.8,-11.373,-71.6,100,27.60
2025-12-11 22:15:37.325,WT901BLE67,90856446-A74E-F462-0152-8475C1E77738,1.401,-1.033,0.795,0.000,0.000,0.000,-0.494,0.775,-72.729,30.8,-11.373,-71.6,100,27.60
2025-12-11 22:15:37.330,WT901BLE67,90856446-A74E-F462-0152-8475C1E77738,1.401,-1.033,0.795,0.000,0.000,0.000,-0.494,0.775,-72.729,30.8,-11.373,-71.6,100,27.60
2025-12-11 22:15:37.336,WT901BLE67,90856446-A74E-F462-0152-8475C1E77738,1.401,-1.033,0.795,0.000,0.000,0.000,-0.494,0.775,-72.729,30.8,-11.373,-71.6,100,27.60
2025-12-11 22:15:37.338,WT901BLE67,90856446-A74E-F462-0152-8475C1E77738,1.400,-1.033,0.797,0.000,0.000,0.000,-0.494,0.775,-72.729,30.8,-11.373,-71.6,100,27.60
2025-12-11 22:15:37.338,WT901BLE67,90856446-A74E-F462-0152-8475C1E77738,1.398,-1.033,0.796,0.000,0.000,0.000,-0.494,0.775,-72.729,30.8,-11.373,-71.6,100,27.60
2025-12-11 22:15:37.340,WT901BLE67,90856446-A74E-F462-0152-8475C1E77738,1.398,-1.033,0.796,0.000,0.000,0.000,-0.494,0.775,-72.729,30.8,-11.373,-71.6,100,27.60
2025-12-11 22:15:37.345,WT901BLE67,90856446-A74E-F462-0152-8475C1E77738,1.398,-1.033,0.796,0.000,0.000,0.000,-0.494,0.775,-72.729,30.8,-11.373,-71.6,100,27.60
2025-12-11 22:15:37.350,WT901BLE67,90856446-A74E-F462-0152-8475C1E77738,1.398,-1.033,0.796,0.000,0.000,0.000,-0.494,0.775,-72.729,30.8,-11.373,-71.6,100,27.60
2025-12-11 22:15:37.355,WT901BLE67,90856446-A74E-F462-0152-8475C1E77738,1.398,-1.033,0.796,0.000,0.000,0.000,-0.494,0.775,-72.729,30.8,-11.373,-71.6,100,27.60
2025-12-11 22:15:37.360,WT901BLE67,90856446-A74E-F462-0152-8475C1E77738,1.398,-1.033,0.796,0.000,0.000,0.000,-0.494,0.775,-72.729,30.8,-11.373,-71.6,100,27.60
2025-12-11 22:15:37.365,WT901BLE67,90856446-A74E-F462-0152-8475C1E77738,1.398,-1.033,0.796,0.000,0.000,0.000,-0.494,0.775,-72.729,30.8,-11.373,-71.6,100,27.60
2025-12-11 22:15:37.367,WT901BLE67,90856446-A74E-F462-0152-8475C1E77738,1.402,-1.033,0.796,0.000,0.000,0.000,-0.494,0.775,-72.729,30.8,-11.373,-71.6,100,27.60
2025-12-11 22:15:37.367,WT901BLE67,90856446-A74E-F462-0152-8475C1E77738,1.400,-1.033,0.796,0.000,0.000,0.000,-0.494,0.775,-72.729,30.8,-11.373,-71.6,100,27.60
2025-12-11 22:15:37.370,WT901BLE67,90856446-A74E-F462-0152-8475C1E77738,1.400,-1.033,0.796,0.000,0.000,0.000,-0.494,0.775,-72.729,30.8,-11.373,-71.6,100,27.60
2025-12-11 22:15:37.375,WT901BLE67,90856446-A74E-F462-0152-8475C1E77738,1.400,-1.033,0.796,0.000,0.000,0.000,-0.494,0.775,-72.729,30.8,-11.373,-71.6,100,27.60
2025-12-11 22:15:37.380,WT901BLE67,90856446-A74E-F462-0152-8475C1E77738,1.400,-1.033,0.796,0.000,0.000,0.000,-0.494,0.775,-72.729,30.8,-11.373,-71.6,100,27.60
2025-12-11 22:15:37.386,WT901BLE67,90856446-A74E-F462-0152-8475C1E77738,1.400,-1.033,0.796,0.000,0.000,0.000,-0.494,0.775,-72.729,30.8,-11.373,-71.6,100,27.60
2025-12-11 22:15:37.390,WT901BLE67,90856446-A74E-F462-0152-8475C1E77738,1.400,-1.033,0.796,0.000,0.000,0.000,-0.494,0.775,-72.729,30.8,-11.373,-71.6,100,27.60
2025-12-11 22:15:37.395,WT901BLE67,90856446-A74E-F462-0152-8475C1E77738,1.400,-1.033,0.796,0.000,0.000,0.000,-0.494,0.775,-72.729,30.8,-11.373,-71.6,100,27.60
2025-12-11 22:15:37.400,WT901BLE67,90856446-A74E-F462-0152-8475C1E77738,1.400,-1.033,0.796,0.000,0.000,0.000,-0.494,0.775,-72.729,30.8,-11.373,-71.6,100,27.60
2025-12-11 22:15:37.405,WT901BLE67,90856446-A74E-F462-0152-8475C1E77738,1.400,-1.033,0.796,0.000,0.000,0.000,-0.494,0.775,-72.729,30.8,-11.373,-71.6,100,27.60
2025-12-11 22:15:37.410,WT901BLE67,90856446-A74E-F462-0152-8475C1E77738,1.400,-1.033,0.796,0.000,0.000,0.000,-0.494,0.775,-72.729,30.8,-11.373,-71.6,100,27.60
2025-12-11 22:15:37.415,WT901BLE67,90856446-A74E-F462-0152-8475C1E77738,1.400,-1.033,0.796,0.000,0.000,0.000,-0.494,0.775,-72.729,30.8,-11.373,-71.6,100,27.60
2025-12-11 22:15:37.420,WT901BLE67,90856446-A74E-F462-0152-8475C1E77738,1.400,-1.033,0.796,0.000,0.000,0.000,-0.494,0.775,-72.729,30.8,-11.373,-71.6,100,27.60
2025-12-11 22:15:37.425,WT901BLE67,90856446-A74E-F462-0152-8475C1E77738,1.400,-1.033,0.796,0.000,0.000,0.000,-0.494,0.775,-72.729,30.8,-11.373,-71.6,100,27.60
2025-12-11 22:15:37.427,WT901BLE67,90856446-A74E-F462-0152-8475C1E77738,1.401,-1.032,0.796,0.000,0.000,0.000,-0.494,0.775,-72.729,30.8,-11.373,-71.6,100,27.60
2025-12-11 22:15:37.427,WT901BLE67,90856446-A74E-F462-0152-8475C1E77738,1.399,-1.033,0.794,0.000,0.000,0.000,-0.494,0.775,-72.729,30.8,-11.373,-71.6,100,27.60
2025-12-11 22:15:37.430,WT901BLE67,90856446-A74E-F462-0152-8475C1E77738,1.399,-1.033,0.794,0.000,0.000,0.000,-0.494,0.775,-72.729,30.8,-11.373,-71.6,100,27.60
2025-12-11 22:15:37.436,WT901BLE67,90856446-A74E-F462-0152-8475C1E77738,1.399,-1.033,0.794,0.000,0.000,0.000,-0.494,0.775,-72.729,30.8,-11.373,-71.6,100,27.60
2025-12-11 22:15:37.440,WT901BLE67,90856446-A74E-F462-0152-8475C1E77738,1.399,-1.033,0.794,0.000,0.000,0.000,-0.494,0.775,-72.729,30.8,-11.373,-71.6,100,27.60
2025-12-11 22:15:37.445,WT901BLE67,90856446-A74E-F462-0152-8475C1E77738,1.399,-1.033,0.794,0.000,0.000,0.000,-0.494,0.775,-72.729,30.8,-11.373,-71.6,100,27.60
2025-12-11 22:15:37.450,WT901BLE67,90856446-A74E-F462-0152-8475C1E77738,1.399,-1.033,0.794,0.000,0.000,0.000,-0.494,0.775,-72.729,30.8,-11.373,-71.6,100,27.60
2025-12-11 22:15:37.455,WT901BLE67,90856446-A74E-F462-0152-8475C1E77738,1.399,-1.033,0.794,0.000,0.000,0.000,-0.494,0.775,-72.729,30.8,-11.373,-71.6,100,27.60
2025-12-11 22:15:37.457,WT901BLE67,90856446-A74E-F462-0152-8475C1E77738,1.401,-1.034,0.795,0.000,0.000,0.000,-0.494,0.775,-72.729,30.8,-11.373,-71.6,100,27.60
2025-12-11 22:15:37.457,WT901BLE67,90856446-A74E-F462-0152-8475C1E77738,1.399,-1.034,0.797,0.000,0.000,0.000,-0.494,0.775,-72.729,30.8,-11.373,-71.6,100,27.60
2025-12-11 22:15:37.460,WT901BLE67,90856446-A74E-F462-0152-8475C1E77738,1.399,-1.034,0.797,0.000,0.000,0.000,-0.494,0.775,-72.729,30.8,-11.373,-71.6,100,27.60
2025-12-11 22:15:37.465,WT901BLE67,90856446-A74E-F462-0152-8475C1E77738,1.399,-1.034,0.797,0.000,0.000,0.000,-0.494,0.775,-72.729,30.8,-11.373,-71.6,100,27.60
2025-12-11 22:15:37.470,WT901BLE67,90856446-A74E-F462-0152-8475C1E77738,1.399,-1.034,0.797,0.000,0.000,0.000,-0.494,0.775,-72.729,30.8,-11.373,-71.6,100,27.60
2025-12-11 22:15:37.475,WT901BLE67,90856446-A74E-F462-0152-8475C1E77738,1.399,-1.034,0.797,0.000,0.000,0.000,-0.494,0.775,-72.729,30.8,-11.373,-71.6,100,27.60
2025-12-11 22:15:37.480,WT901BLE67,90856446-A74E-F462-0152-8475C1E77738,1.399,-1.034,0.797,0.000,0.000,0.000,-0.494,0.775,-72.729,30.8,-11.373,-71.6,100,27.60
2025-12-11 22:15:37.486,WT901BLE67,90856446-A74E-F462-0152-8475C1E77738,1.399,-1.034,0.797,0.000,0.000,0.000,-0.494,0.775,-72.729,30.8,-11.373,-71.6,100,27.60
2025-12-11 22:15:37.488,WT901BLE67,90856446-A74E-F462-0152-8475C1E77738,1.401,-1.031,0.798,0.000,0.000,0.000,-0.494,0.775,-72.729,30.8,-11.373,-71.6,100,27.60
2025-12-11 22:15:37.488,WT901BLE67,90856446-A74E-F462-0152-8475C1E77738,1.399,-1.034,0.796,0.000,0.000,0.000,-0.494,0.775,-72.729,30.8,-11.373,-71.6,100,27.60
2025-12-11 22:15:37.490,WT901BLE67,90856446-A74E-F462-0152-8475C1E77738,1.399,-1.034,0.796,0.000,0.000,0.000,-0.494,0.775,-72.729,30.8,-11.373,-71.6,100,27.60
2025-12-11 22:15:37.495,WT901BLE67,90856446-A74E-F462-0152-8475C1E77738,1.399,-1.034,0.796,0.000,0.000,0.000,-0.494,0.775,-72.729,30.8,-11.373,-71.6,100,27.60
2025-12-11 22:15:37.500,WT901BLE67,90856446-A74E-F462-0152-8475C1E77738,1.399,-1.034,0.796,0.000,0.000,0.000,-0.494,0.775,-72.729,30.8,-11.373,-71.6,100,27.60
2025-12-11 22:15:37.505,WT901BLE67,90856446-A74E-F462-0152-8475C1E77738,1.399,-1.034,0.796,0.000,0.000,0.000,-0.494,0.775,-72.729,30.8,-11.373,-71.6,100,27.60
2025-12-11 22:15:37.510,WT901BLE67,90856446-A74E-F462-0152-8475C1E77738,1.399,-1.034,0.796,0.000,0.000,0.000,-0.494,0.775,-72.729,30.8,-11.373,-71.6,100,27.60
2025-12-11 22:15:37.515,WT901BLE67,90856446-A74E-F462-0152-8475C1E77738,1.399,-1.034,0.796,0.000,0.000,0.000,-0.494,0.775,-72.729,30.8,-11.373,-71.6,100,27.60
2025-12-11 22:15:37.520,WT901BLE67,90856446-A74E-F462-0152-8475C1E77738,1.399,-1.034,0.796,0.000,0.000,0.000,-0.494,0.775,-72.729,30.8,-11.373,-71.6,100,27.60
2025-12-11 22:15:37.525,WT901BLE67,90856446-A74E-F462-0152-8475C1E77738,1.399,-1.034,0.796,0.000,0.000,0.000,-0.494,0.775,-72.729,30.8,-11.373,-71.6,100,27.60
2025-12-11 22:15:37.530,WT901BLE67,90856446-A74E-F462-0152-8475C1E77738,1.399,-1.034,0.796,0.000,0.000,0.000,-0.494,0.775,-72.729,30.8,-11.373,-71.6,100,27.60
2025-12-11 22:15:37.536,WT901BLE67,90856446-A74E-F462-0152-8475C1E77738,1.399,-1.034,0.796,0.000,0.000,0.000,-0.494,0.775,-72.729,30.8,-11.373,-71.6,100,27.60
2025-12-11 22:15:37.540,WT901BLE67,90856446-A74E-F462-0152-8475C1E77738,1.399,-1.034,0.796,0.000,0.000,0.000,-0.494,0.775,-72.729,30.8,-11.373,-71.6,100,27.60
2025-12-11 22:15:37.545,WT901BLE67,90856446-A74E-F462-0152-8475C1E77738,1.399,-1.034,0.796,0.000,0.000,0.000,-0.494,0.775,-72.729,30.8,-11.373,-71.6,100,27.60
2025-12-11 22:15:37.547,WT901BLE67,90856446-A74E-F462-0152-8475C1E77738,1.400,-1.033,0.796,0.000,0.000,0.000,-0.494,0.775,-72.729,30.8,-11.373,-71.6,100,27.60
2025-12-11 22:15:37.547,WT901BLE67,90856446-A74E-F462-0152-8475C1E77738,1.400,-1.032,0.796,0.000,0.000,0.000,-0.494,0.775,-72.729,30.8,-11.373,-71.6,100,27.60
2025-12-11 22:15:37.550,WT901BLE67,90856446-A74E-F462-0152-8475C1E77738,1.400,-1.032,0.796,0.000,0.000,0.000,-0.494,0.775,-72.729,30.8,-11.373,-71.6,100,27.60
2025-12-11 22:15:37.555,WT901BLE67,90856446-A74E-F462-0152-8475C1E77738,1.400,-1.032,0.796,0.000,0.000,0.000,-0.494,0.775,-72.729,30.8,-11.373,-71.6,100,27.60
2025-12-11 22:15:37.560,WT901BLE67,90856446-A74E-F462-0152-8475C1E77738,1.400,-1.032,0.796,0.000,0.000,0.000,-0.494,0.775,-72.729,30.8,-11.373,-71.6,100,27.60
2025-12-11 22:15:37.565,WT901BLE67,90856446-A74E-F462-0152-8475C1E77738,1.400,-1.032,0.796,0.000,0.000,0.000,-0.494,0.775,-72.729,30.8,-11.373,-71.6,100,27.60
2025-12-11 22:15:37.570,WT901BLE67,90856446-A74E-F462-0152-8475C1E77738,1.400,-1.032,0.796,0.000,0.000,0.000,-0.494,0.775,-72.729,30.8,-11.373,-71.6,100,27.60
2025-12-11 22:15:37.575,WT901BLE67,90856446-A74E-F462-0152-8475C1E77738,1.400,-1.032,0.796,0.000,0.000,0.000,-0.494,0.775,-72.729,30.8,-11.373,-71.6,100,27.60
2025-12-11 22:15:37.578,WT901BLE67,90856446-A74E-F462-0152-8475C1E77738,1.400,-1.032,0.796,0.000,0.000,0.000,-0.494,0.775,-72.729,30.8,-11.373,-71.6,100,27.60
2025-12-11 22:15:37.578,WT901BLE67,90856446-A74E-F462-0152-8475C1E77738,1.401,-1.033,0.796,0.000,0.000,0.000,-0.494,0.775,-72.729,30.8,-11.373,-71.6,100,27.60
2025-12-11 22:15:37.580,WT901BLE67,90856446-A74E-F462-0152-8475C1E77738,1.401,-1.033,0.796,0.000,0.000,0.000,-0.494,0.775,-72.729,30.8,-11.373,-71.6,100,27.60
2025-12-11 22:15:37.585,WT901BLE67,90856446-A74E-F462-0152-8475C1E77738,1.401,-1.033,0.796,0.000,0.000,0.000,-0.494,0.775,-72.729,30.8,-11.373,-71.6,100,27.60
2025-12-11 22:15:37.594,WT901BLE67,90856446-A74E-F462-0152-8475C1E77738,1.401,-1.033,0.796,0.000,0.000,0.000,-0.494,0.775,-72.729,30.8,-11.373,-71.6,100,27.60
2025-12-11 22:15:37.596,WT901BLE67,90856446-A74E-F462-0152-8475C1E77738,1.401,-1.033,0.796,0.000,0.000,0.000,-0.494,0.775,-72.729,30.8,-11.373,-71.6,100,27.60
2025-12-11 22:15:37.600,WT901BLE67,90856446-A74E-F462-0152-8475C1E77738,1.401,-1.033,0.796,0.000,0.000,0.000,-0.494,0.775,-72.729,30.8,-11.373,-71.6,100,27.60
2025-12-11 22:15:37.605,WT901BLE67,90856446-A74E-F462-0152-8475C1E77738,1.401,-1.033,0.796,0.000,0.000,0.000,-0.494,0.775,-72.729,30.8,-11.373,-71.6,100,27.60
2025-12-11 22:15:37.610,WT901BLE67,90856446-A74E-F462-0152-8475C1E77738,1.402,-1.034,0.795,0.000,0.000,0.000,-0.494,0.775,-72.729,30.8,-11.373,-71.6,100,27.60
2025-12-11 22:15:37.610,WT901BLE67,90856446-A74E-F462-0152-8475C1E77738,1.401,-1.032,0.794,0.000,0.000,0.000,-0.494,0.775,-72.729,30.8,-11.373,-71.6,100,27.60
2025-12-11 22:15:37.610,WT901BLE67,90856446-A74E-F462-0152-8475C1E77738,1.401,-1.032,0.794,0.000,0.000,0.000,-0.494,0.775,-72.729,30.8,-11.373,-71.6,100,27.60
2025-12-11 22:15:37.615,WT901BLE67,90856446-A74E-F462-0152-8475C1E77738,1.401,-1.032,0.794,0.000,0.000,0.000,-0.494,0.775,-72.729,30.8,-11.373,-71.6,100,27.60
2025-12-11 22:15:37.620,WT901BLE67,90856446-A74E-F462-0152-8475C1E77738,1.401,-1.032,0.794,0.000,0.000,0.000,-0.494,0.775,-72.729,30.8,-11.373,-71.6,100,27.60
2025-12-11 22:15:37.625,WT901BLE67,90856446-A74E-F462-0152-8475C1E77738,1.401,-1.032,0.794,0.000,0.000,0.000,-0.494,0.775,-72.729,30.8,-11.373,-71.6,100,27.60
2025-12-11 22:15:37.630,WT901BLE67,90856446-A74E-F462-0152-8475C1E77738,1.401,-1.032,0.794,0.000,0.000,0.000,-0.494,0.775,-72.729,30.8,-11.373,-71.6,100,27.60
2025-12-11 22:15:37.635,WT901BLE67,90856446-A74E-F462-0152-8475C1E77738,1.401,-1.032,0.794,0.000,0.000,0.000,-0.494,0.775,-72.729,30.8,-11.373,-71.6,100,27.60
2025-12-11 22:15:37.640,WT901BLE67,90856446-A74E-F462-0152-8475C1E77738,1.401,-1.032,0.794,0.000,0.000,0.000,-0.494,0.775,-72.729,30.8,-11.373,-71.6,100,27.60
2025-12-11 22:15:37.645,WT901BLE67,90856446-A74E-F462-0152-8475C1E77738,1.401,-1.032,0.794,0.000,0.000,0.000,-0.494,0.775,-72.729,30.8,-11.373,-71.6,100,27.60
2025-12-11 22:15:37.650,WT901BLE67,90856446-A74E-F462-0152-8475C1E77738,1.401,-1.032,0.794,0.000,0.000,0.000,-0.494,0.775,-72.729,30.8,-11.373,-71.6,100,27.60
2025-12-11 22:15:37.655,WT901BLE67,90856446-A74E-F462-0152-8475C1E77738,1.401,-1.032,0.794,0.000,0.000,0.000,-0.494,0.775,-72.729,30.8,-11.373,-71.6,100,27.60
2025-12-11 22:15:37.661,WT901BLE67,90856446-A74E-F462-0152-8475C1E77738,1.401,-1.032,0.794,0.000,0.000,0.000,-0.494,0.775,-72.729,30.8,-11.373,-71.6,100,27.60
2025-12-11 22:15:37.665,WT901BLE67,90856446-A74E-F462-0152-8475C1E77738,1.401,-1.032,0.794,0.000,0.000,0.000,-0.494,0.775,-72.729,30.8,-11.373,-71.6,100,27.60
2025-12-11 22:15:37.668,WT901BLE67,90856446-A74E-F462-0152-8475C1E77738,1.400,-1.034,0.794,0.000,0.000,0.000,-0.494,0.775,-72.729,30.8,-11.373,-71.6,100,27.60
2025-12-11 22:15:37.668,WT901BLE67,90856446-A74E-F462-0152-8475C1E77738,1.400,-1.033,0.796,0.000,0.000,0.000,-0.494,0.775,-72.729,30.8,-11.373,-71.6,100,27.60
2025-12-11 22:15:37.670,WT901BLE67,90856446-A74E-F462-0152-8475C1E77738,1.400,-1.033,0.796,0.000,0.000,0.000,-0.494,0.775,-72.729,30.8,-11.373,-71.6,100,27.60
2025-12-11 22:15:37.675,WT901BLE67,90856446-A74E-F462-0152-8475C1E77738,1.400,-1.033,0.796,0.000,0.000,0.000,-0.494,0.775,-72.729,30.8,-11.373,-71.6,100,27.60
2025-12-11 22:15:37.680,WT901BLE67,90856446-A74E-F462-0152-8475C1E77738,1.400,-1.033,0.796,0.000,0.000,0.000,-0.494,0.775,-72.729,30.8,-11.373,-71.6,100,27.60
2025-12-11 22:15:37.685,WT901BLE67,90856446-A74E-F462-0152-8475C1E77738,1.400,-1.033,0.796,0.000,0.000,0.000,-0.494,0.775,-72.729,30.8,-11.373,-71.6,100,27.60
2025-12-11 22:15:37.690,WT901BLE67,90856446-A74E-F462-0152-8475C1E77738,1.400,-1.033,0.796,0.000,0.000,0.000,-0.494,0.775,-72.729,30.8,-11.373,-71.6,100,27.60
2025-12-11 22:15:37.695,WT901BLE67,90856446-A74E-F462-0152-8475C1E77738,1.400,-1.033,0.796,0.000,0.000,0.000,-0.494,0.775,-72.729,30.8,-11.373,-71.6,100,27.60
2025-12-11 22:15:37.697,WT901BLE67,90856446-A74E-F462-0152-8475C1E77738,1.400,-1.034,0.796,0.000,0.000,0.000,-0.494,0.775,-72.729,30.8,-11.373,-71.6,100,27.60
2025-12-11 22:15:37.697,WT901BLE67,90856446-A74E-F462-0152-8475C1E77738,1.401,-1.034,0.796,0.000,0.000,0.000,-0.494,0.775,-72.729,30.8,-11.373,-71.6,100,27.60
2025-12-11 22:15:37.700,WT901BLE67,90856446-A74E-F462-0152-8475C1E77738,1.401,-1.034,0.796,0.000,0.000,0.000,-0.494,0.775,-72.729,30.8,-11.373,-71.6,100,27.60
2025-12-11 22:15:37.705,WT901BLE67,90856446-A74E-F462-0152-8475C1E77738,1.401,-1.034,0.796,0.000,0.000,0.000,-0.494,0.775,-72.729,30.8,-11.373,-71.6,100,27.60
2025-12-11 22:15:37.711,WT901BLE67,90856446-A74E-F462-0152-8475C1E77738,1.401,-1.034,0.796,0.000,0.000,0.000,-0.494,0.775,-72.729,30.8,-11.373,-71.6,100,27.60
2025-12-11 22:15:37.715,WT901BLE67,90856446-A74E-F462-0152-8475C1E77738,1.401,-1.034,0.796,0.000,0.000,0.000,-0.494,0.775,-72.729,30.8,-11.373,-71.6,100,27.60
2025-12-11 22:15:37.720,WT901BLE67,90856446-A74E-F462-0152-8475C1E77738,1.401,-1.034,0.796,0.000,0.000,0.000,-0.494,0.775,-72.729,30.8,-11.373,-71.6,100,27.60
2025-12-11 22:15:37.725,WT901BLE67,90856446-A74E-F462-0152-8475C1E77738,1.401,-1.034,0.796,0.000,0.000,0.000,-0.494,0.775,-72.729,30.8,-11.373,-71.6,100,27.60
2025-12-11 22:15:37.729,WT901BLE67,90856446-A74E-F462-0152-8475C1E77738,1.402,-1.033,0.795,0.000,0.000,0.000,-0.494,0.775,-72.729,30.8,-11.373,-71.6,100,27.60
2025-12-11 22:15:37.729,WT901BLE67,90856446-A74E-F462-0152-8475C1E77738,1.400,-1.033,0.794,0.000,0.000,0.000,-0.494,0.775,-72.729,30.8,-11.373,-71.6,100,27.60
2025-12-11 22:15:37.730,WT901BLE67,90856446-A74E-F462-0152-8475C1E77738,1.400,-1.033,0.794,0.000,0.000,0.000,-0.494,0.775,-72.729,30.8,-11.373,-71.6,100,27.60
2025-12-11 22:15:37.735,WT901BLE67,90856446-A74E-F462-0152-8475C1E77738,1.400,-1.033,0.794,0.000,0.000,0.000,-0.494,0.775,-72.729,30.8,-11.373,-71.6,100,27.60
2025-12-11 22:15:37.740,WT901BLE67,90856446-A74E-F462-0152-8475C1E77738,1.400,-1.033,0.794,0.000,0.000,0.000,-0.494,0.775,-72.729,30.8,-11.373,-71.6,100,27.60
2025-12-11 22:15:37.745,WT901BLE67,90856446-A74E-F462-0152-8475C1E77738,1.400,-1.033,0.794,0.000,0.000,0.000,-0.494,0.775,-72.729,30.8,-11.373,-71.6,100,27.60
2025-12-11 22:15:37.750,WT901BLE67,90856446-A74E-F462-0152-8475C1E77738,1.400,-1.033,0.794,0.000,0.000,0.000,-0.494,0.775,-72.729,30.8,-11.373,-71.6,100,27.60
2025-12-11 22:15:37.755,WT901BLE67,90856446-A74E-F462-0152-8475C1E77738,1.400,-1.033,0.794,0.000,0.000,0.000,-0.494,0.775,-72.729,30.8,-11.373,-71.6,100,27.60
2025-12-11 22:15:37.761,WT901BLE67,90856446-A74E-F462-0152-8475C1E77738,1.400,-1.033,0.794,0.000,0.000,0.000,-0.494,0.775,-72.729,30.8,-11.373,-71.6,100,27.60
2025-12-11 22:15:37.765,WT901BLE67,90856446-A74E-F462-0152-8475C1E77738,1.400,-1.033,0.794,0.000,0.000,0.000,-0.494,0.775,-72.729,30.8,-11.373,-71.6,100,27.60
2025-12-11 22:15:37.770,WT901BLE67,90856446-A74E-F462-0152-8475C1E77738,1.400,-1.033,0.794,0.000,0.000,0.000,-0.494,0.775,-72.729,30.8,-11.373,-71.6,100,27.60
2025-12-11 22:15:37.775,WT901BLE67,90856446-A74E-F462-0152-8475C1E77738,1.400,-1.033,0.794,0.000,0.000,0.000,-0.494,0.775,-72.729,30.8,-11.373,-71.6,100,27.60
2025-12-11 22:15:37.780,WT901BLE67,90856446-A74E-F462-0152-8475C1E77738,1.400,-1.033,0.794,0.000,0.000,0.000,-0.494,0.775,-72.729,30.8,-11.373,-71.6,100,27.60
2025-12-11 22:15:37.785,WT901BLE67,90856446-A74E-F462-0152-8475C1E77738,1.400,-1.033,0.794,0.000,0.000,0.000,-0.494,0.775,-72.729,30.8,-11.373,-71.6,100,27.60
2025-12-11 22:15:37.788,WT901BLE67,90856446-A74E-F462-0152-8475C1E77738,1.401,-1.033,0.793,0.000,0.000,0.000,-0.494,0.775,-72.729,30.8,-11.373,-71.6,100,27.60
2025-12-11 22:15:37.788,WT901BLE67,90856446-A74E-F462-0152-8475C1E77738,1.400,-1.033,0.795,0.000,0.000,0.000,-0.494,0.775,-72.729,30.8,-11.373,-71.6,100,27.60
2025-12-11 22:15:37.790,WT901BLE67,90856446-A74E-F462-0152-8475C1E77738,1.400,-1.033,0.795,0.000,0.000,0.000,-0.494,0.775,-72.729,30.8,-11.373,-71.6,100,27.60
2025-12-11 22:15:37.795,WT901BLE67,90856446-A74E-F462-0152-8475C1E77738,1.400,-1.033,0.795,0.000,0.000,0.000,-0.494,0.775,-72.729,30.8,-11.373,-71.6,100,27.60
2025-12-11 22:15:37.800,WT901BLE67,90856446-A74E-F462-0152-8475C1E77738,1.400,-1.033,0.795,0.000,0.000,0.000,-0.494,0.775,-72.729,30.8,-11.373,-71.6,100,27.60
2025-12-11 22:15:37.805,WT901BLE67,90856446-A74E-F462-0152-8475C1E77738,1.400,-1.033,0.795,0.000,0.000,0.000,-0.494,0.775,-72.729,30.8,-11.373,-71.6,100,27.60
2025-12-11 22:15:37.811,WT901BLE67,90856446-A74E-F462-0152-8475C1E77738,1.400,-1.033,0.795,0.000,0.000,0.000,-0.494,0.775,-72.729,30.8,-11.373,-71.6,100,27.60
2025-12-11 22:15:37.815,WT901BLE67,90856446-A74E-F462-0152-8475C1E77738,1.400,-1.033,0.795,0.000,0.000,0.000,-0.494,0.775,-72.729,30.8,-11.373,-71.6,100,27.60
2025-12-11 22:15:37.819,WT901BLE67,90856446-A74E-F462-0152-8475C1E77738,1.401,-1.033,0.796,0.000,0.000,0.000,-0.494,0.775,-72.729,30.8,-11.373,-71.6,100,27.60
2025-12-11 22:15:37.819,WT901BLE67,90856446-A74E-F462-0152-8475C1E77738,1.400,-1.034,0.797,0.000,0.000,0.000,-0.494,0.775,-72.729,30.8,-11.373,-71.6,100,27.60
2025-12-11 22:15:37.820,WT901BLE67,90856446-A74E-F462-0152-8475C1E77738,1.400,-1.034,0.797,0.000,0.000,0.000,-0.494,0.775,-72.729,30.8,-11.373,-71.6,100,27.60
2025-12-11 22:15:37.825,WT901BLE67,90856446-A74E-F462-0152-8475C1E77738,1.400,-1.034,0.797,0.000,0.000,0.000,-0.494,0.775,-72.729,30.8,-11.373,-71.6,100,27.60
2025-12-11 22:15:37.830,WT901BLE67,90856446-A74E-F462-0152-8475C1E77738,1.400,-1.034,0.797,0.000,0.000,0.000,-0.494,0.775,-72.729,30.8,-11.373,-71.6,100,27.60
2025-12-11 22:15:37.835,WT901BLE67,90856446-A74E-F462-0152-8475C1E77738,1.400,-1.034,0.797,0.000,0.000,0.000,-0.494,0.775,-72.729,30.8,-11.373,-71.6,100,27.60
2025-12-11 22:15:37.840,WT901BLE67,90856446-A74E-F462-0152-8475C1E77738,1.400,-1.034,0.797,0.000,0.000,0.000,-0.494,0.775,-72.729,30.8,-11.373,-71.6,100,27.60
2025-12-11 22:15:37.845,WT901BLE67,90856446-A74E-F462-0152-8475C1E77738,1.400,-1.034,0.797,0.000,0.000,0.000,-0.494,0.775,-72.729,30.8,-11.373,-71.6,100,27.60
2025-12-11 22:15:37.847,WT901BLE67,90856446-A74E-F462-0152-8475C1E77738,1.401,-1.034,0.796,0.000,0.000,0.000,-0.494,0.775,-72.729,30.8,-11.373,-71.6,100,27.60
2025-12-11 22:15:37.847,WT901BLE67,90856446-A74E-F462-0152-8475C1E77738,1.400,-1.034,0.795,0.000,0.000,0.000,-0.494,0.775,-72.729,30.8,-11.373,-71.6,100,27.60
2025-12-11 22:15:37.850,WT901BLE67,90856446-A74E-F462-0152-8475C1E77738,1.400,-1.034,0.795,0.000,0.000,0.000,-0.494,0.775,-72.729,30.8,-11.373,-71.6,100,27.60
2025-12-11 22:15:37.855,WT901BLE67,90856446-A74E-F462-0152-8475C1E77738,1.400,-1.034,0.795,0.000,0.000,0.000,-0.494,0.775,-72.729,30.8,-11.373,-71.6,100,27.60
2025-12-11 22:15:37.861,WT901BLE67,90856446-A74E-F462-0152-8475C1E77738,1.400,-1.034,0.795,0.000,0.000,0.000,-0.494,0.775,-72.729,30.8,-11.373,-71.6,100,27.60
2025-12-11 22:15:37.865,WT901BLE67,90856446-A74E-F462-0152-8475C1E77738,1.400,-1.034,0.795,0.000,0.000,0.000,-0.494,0.775,-72.729,30.8,-11.373,-71.6,100,27.60
2025-12-11 22:15:37.870,WT901BLE67,90856446-A74E-F462-0152-8475C1E77738,1.400,-1.034,0.795,0.000,0.000,0.000,-0.494,0.775,-72.729,30.8,-11.373,-71.6,100,27.60
2025-12-11 22:15:37.875,WT901BLE67,90856446-A74E-F462-0152-8475C1E77738,1.400,-1.034,0.795,0.000,0.000,0.000,-0.494,0.775,-72.729,30.8,-11.373,-71.6,100,27.60
2025-12-11 22:15:37.880,WT901BLE67,90856446-A74E-F462-0152-8475C1E77738,1.400,-1.034,0.795,0.000,0.000,0.000,-0.494,0.775,-72.729,30.8,-11.373,-71.6,100,27.60
2025-12-11 22:15:37.885,WT901BLE67,90856446-A74E-F462-0152-8475C1E77738,1.400,-1.034,0.795,0.000,0.000,0.000,-0.494,0.775,-72.729,30.8,-11.373,-71.6,100,27.60
2025-12-11 22:15:37.890,WT901BLE67,90856446-A74E-F462-0152-8475C1E77738,1.400,-1.034,0.795,0.000,0.000,0.000,-0.494,0.775,-72.729,30.8,-11.373,-71.6,100,27.60
2025-12-11 22:15:37.895,WT901BLE67,90856446-A74E-F462-0152-8475C1E77738,1.400,-1.034,0.795,0.000,0.000,0.000,-0.494,0.775,-72.729,30.8,-11.373,-71.6,100,27.60
2025-12-11 22:15:37.900,WT901BLE67,90856446-A74E-F462-0152-8475C1E77738,1.400,-1.034,0.795,0.000,0.000,0.000,-0.494,0.775,-72.729,30.8,-11.373,-71.6,100,27.60
2025-12-11 22:15:37.905,WT901BLE67,90856446-A74E-F462-0152-8475C1E77738,1.400,-1.034,0.795,0.000,0.000,0.000,-0.494,0.775,-72.729,30.8,-11.373,-71.6,100,27.60
2025-12-11 22:15:37.908,WT901BLE67,90856446-A74E-F462-0152-8475C1E77738,1.401,-1.031,0.796,0.000,0.000,0.000,-0.494,0.775,-72.729,30.8,-11.373,-71.6,100,27.60
2025-12-11 22:15:37.908,WT901BLE67,90856446-A74E-F462-0152-8475C1E77738,1.399,-1.034,0.794,0.000,0.000,0.000,-0.494,0.775,-72.729,30.8,-11.373,-71.6,100,27.60
2025-12-11 22:15:37.911,WT901BLE67,90856446-A74E-F462-0152-8475C1E77738,1.399,-1.034,0.794,0.000,0.000,0.000,-0.494,0.775,-72.729,30.8,-11.373,-71.6,100,27.60
2025-12-11 22:15:37.915,WT901BLE67,90856446-A74E-F462-0152-8475C1E77738,1.399,-1.034,0.794,0.000,0.000,0.000,-0.494,0.775,-72.729,30.8,-11.373,-71.6,100,27.60
2025-12-11 22:15:37.920,WT901BLE67,90856446-A74E-F462-0152-8475C1E77738,1.399,-1.034,0.794,0.000,0.000,0.000,-0.494,0.775,-72.729,30.8,-11.373,-71.6,100,27.60
2025-12-11 22:15:37.925,WT901BLE67,90856446-A74E-F462-0152-8475C1E77738,1.399,-1.034,0.794,0.000,0.000,0.000,-0.494,0.775,-72.729,30.8,-11.373,-71.6,100,27.60
2025-12-11 22:15:37.930,WT901BLE67,90856446-A74E-F462-0152-8475C1E77738,1.399,-1.034,0.794,0.000,0.000,0.000,-0.494,0.775,-72.729,30.8,-11.373,-71.6,100,27.60
2025-12-11 22:15:37.935,WT901BLE67,90856446-A74E-F462-0152-8475C1E77738,1.399,-1.034,0.794,0.000,0.000,0.000,-0.494,0.775,-72.729,30.8,-11.373,-71.6,100,27.60
2025-12-11 22:15:37.940,WT901BLE67,90856446-A74E-F462-0152-8475C1E77738,1.400,-1.034,0.794,0.000,0.000,0.000,-0.494,0.775,-72.729,30.8,-11.373,-71.6,100,27.60
2025-12-11 22:15:37.940,WT901BLE67,90856446-A74E-F462-0152-8475C1E77738,1.401,-1.035,0.795,0.000,0.000,0.000,-0.494,0.775,-72.729,30.8,-11.373,-71.6,100,27.60
2025-12-11 22:15:37.940,WT901BLE67,90856446-A74E-F462-0152-8475C1E77738,1.401,-1.035,0.795,0.000,0.000,0.000,-0.494,0.775,-72.729,30.8,-11.373,-71.6,100,27.60
2025-12-11 22:15:37.945,WT901BLE67,90856446-A74E-F462-0152-8475C1E77738,1.401,-1.035,0.795,0.000,0.000,0.000,-0.494,0.775,-72.729,30.8,-11.373,-71.6,100,27.60
2025-12-11 22:15:37.950,WT901BLE67,90856446-A74E-F462-0152-8475C1E77738,1.401,-1.035,0.795,0.000,0.000,0.000,-0.494,0.775,-72.729,30.8,-11.373,-71.6,100,27.60
2025-12-11 22:15:37.955,WT901BLE67,90856446-A74E-F462-0152-8475C1E77738,1.401,-1.035,0.795,0.000,0.000,0.000,-0.494,0.775,-72.729,30.8,-11.373,-71.6,100,27.60
2025-12-11 22:15:37.961,WT901BLE67,90856446-A74E-F462-0152-8475C1E77738,1.401,-1.035,0.795,0.000,0.000,0.000,-0.494,0.775,-72.729,30.8,-11.373,-71.6,100,27.60
2025-12-11 22:15:37.965,WT901BLE67,90856446-A74E-F462-0152-8475C1E77738,1.401,-1.035,0.795,0.000,0.000,0.000,-0.494,0.775,-72.729,30.8,-11.373,-71.6,100,27.60
2025-12-11 22:15:37.970,WT901BLE67,90856446-A74E-F462-0152-8475C1E77738,1.401,-1.035,0.795,0.000,0.000,0.000,-0.494,0.775,-72.729,30.8,-11.373,-71.6,100,27.60
2025-12-11 22:15:37.975,WT901BLE67,90856446-A74E-F462-0152-8475C1E77738,1.401,-1.035,0.795,0.000,0.000,0.000,-0.494,0.775,-72.729,30.8,-11.373,-71.6,100,27.60
2025-12-11 22:15:37.980,WT901BLE67,90856446-A74E-F462-0152-8475C1E77738,1.401,-1.035,0.795,0.000,0.000,0.000,-0.494,0.775,-72.729,30.8,-11.373,-71.6,100,27.60
2025-12-11 22:15:37.985,WT901BLE67,90856446-A74E-F462-0152-8475C1E77738,1.401,-1.035,0.795,0.000,0.000,0.000,-0.494,0.775,-72.729,30.8,-11.373,-71.6,100,27.60
2025-12-11 22:15:37.990,WT901BLE67,90856446-A74E-F462-0152-8475C1E77738,1.401,-1.035,0.795,0.000,0.000,0.000,-0.494,0.775,-72.729,30.8,-11.373,-71.6,100,27.60
2025-12-11 22:15:37.995,WT901BLE67,90856446-A74E-F462-0152-8475C1E77738,1.401,-1.035,0.795,0.000,0.000,0.000,-0.494,0.775,-72.729,30.8,-11.373,-71.6,100,27.60
2025-12-11 22:15:37.997,WT901BLE67,90856446-A74E-F462-0152-8475C1E77738,1.400,-1.034,0.796,0.000,0.000,0.000,-0.494,0.775,-72.729,30.8,-11.373,-71.6,100,27.60
2025-12-11 22:15:37.998,WT901BLE67,90856446-A74E-F462-0152-8475C1E77738,1.400,-1.035,0.795,0.000,0.000,0.000,-0.489,0.775,-72.729,30.8,-11.373,-71.6,100,27.60
2025-12-11 22:15:38.000,WT901BLE67,90856446-A74E-F462-0152-8475C1E77738,1.400,-1.035,0.795,0.000,0.000,0.000,-0.489,0.775,-72.729,30.8,-11.373,-71.6,100,27.60
2025-12-11 22:15:38.005,WT901BLE67,90856446-A74E-F462-0152-8475C1E77738,1.400,-1.035,0.795,0.000,0.000,0.000,-0.489,0.775,-72.729,30.8,-11.373,-71.6,100,27.60
2025-12-11 22:15:38.011,WT901BLE67,90856446-A74E-F462-0152-8475C1E77738,1.400,-1.035,0.795,0.000,0.000,0.000,-0.489,0.775,-72.729,30.8,-11.373,-71.6,100,27.60
2025-12-11 22:15:38.015,WT901BLE67,90856446-A74E-F462-0152-8475C1E77738,1.400,-1.035,0.795,0.000,0.000,0.000,-0.489,0.775,-72.729,30.8,-11.373,-71.6,100,27.60
2025-12-11 22:15:38.020,WT901BLE67,90856446-A74E-F462-0152-8475C1E77738,1.400,-1.035,0.795,0.000,0.000,0.000,-0.489,0.775,-72.729,30.8,-11.373,-71.6,100,27.60
2025-12-11 22:15:38.025,WT901BLE67,90856446-A74E-F462-0152-8475C1E77738,1.400,-1.035,0.795,0.000,0.000,0.000,-0.489,0.775,-72.729,30.8,-11.373,-71.6,100,27.60
2025-12-11 22:15:38.029,WT901BLE67,90856446-A74E-F462-0152-8475C1E77738,1.402,-1.033,0.796,0.000,0.000,0.000,-0.494,0.775,-72.729,30.8,-11.373,-71.6,100,27.60
2025-12-11 22:15:38.029,WT901BLE67,90856446-A74E-F462-0152-8475C1E77738,1.400,-1.034,0.795,0.000,0.000,0.000,-0.489,0.775,-72.729,30.8,-11.373,-71.6,100,27.60
2025-12-11 22:15:38.030,WT901BLE67,90856446-A74E-F462-0152-8475C1E77738,1.400,-1.034,0.795,0.000,0.000,0.000,-0.489,0.775,-72.729,30.8,-11.373,-71.6,100,27.60
2025-12-11 22:15:38.035,WT901BLE67,90856446-A74E-F462-0152-8475C1E77738,1.400,-1.034,0.795,0.000,0.000,0.000,-0.489,0.775,-72.729,30.8,-11.373,-71.6,100,27.60
2025-12-11 22:15:38.040,WT901BLE67,90856446-A74E-F462-0152-8475C1E77738,1.400,-1.034,0.795,0.000,0.000,0.000,-0.489,0.775,-72.729,30.8,-11.373,-71.6,100,27.60
2025-12-11 22:15:38.044,WT901BLE67,90856446-A74E-F462-0152-8475C1E77738,1.400,-1.034,0.795,0.000,0.000,0.000,-0.489,0.775,-72.729,30.8,-11.373,-71.6,100,27.60
2025-12-11 22:15:38.050,WT901BLE67,90856446-A74E-F462-0152-8475C1E77738,1.400,-1.034,0.795,0.000,0.000,0.000,-0.489,0.775,-72.729,30.8,-11.373,-71.6,100,27.60
2025-12-11 22:15:38.055,WT901BLE67,90856446-A74E-F462-0152-8475C1E77738,1.400,-1.034,0.795,0.000,0.000,0.000,-0.489,0.775,-72.729,30.8,-11.373,-71.6,100,27.60
2025-12-11 22:15:38.057,WT901BLE67,90856446-A74E-F462-0152-8475C1E77738,1.400,-1.035,0.796,0.000,0.000,0.000,-0.489,0.775,-72.729,30.8,-11.373,-71.6,100,27.60
2025-12-11 22:15:38.057,WT901BLE67,90856446-A74E-F462-0152-8475C1E77738,1.399,-1.035,0.797,0.000,0.000,0.000,-0.489,0.775,-72.729,30.8,-11.373,-71.6,100,27.60
2025-12-11 22:15:38.061,WT901BLE67,90856446-A74E-F462-0152-8475C1E77738,1.399,-1.035,0.797,0.000,0.000,0.000,-0.489,0.775,-72.729,30.8,-11.373,-71.6,100,27.60
2025-12-11 22:15:38.065,WT901BLE67,90856446-A74E-F462-0152-8475C1E77738,1.399,-1.035,0.797,0.000,0.000,0.000,-0.489,0.775,-72.729,30.8,-11.373,-71.6,100,27.60
2025-12-11 22:15:38.070,WT901BLE67,90856446-A74E-F462-0152-8475C1E77738,1.399,-1.035,0.797,0.000,0.000,0.000,-0.489,0.775,-72.729,30.8,-11.373,-71.6,100,27.60
2025-12-11 22:15:38.075,WT901BLE67,90856446-A74E-F462-0152-8475C1E77738,1.399,-1.035,0.797,0.000,0.000,0.000,-0.489,0.775,-72.729,30.8,-11.373,-71.6,100,27.60
2025-12-11 22:15:38.080,WT901BLE67,90856446-A74E-F462-0152-8475C1E77738,1.399,-1.035,0.797,0.000,0.000,0.000,-0.489,0.775,-72.729,30.8,-11.373,-71.6,100,27.60
2025-12-11 22:15:38.085,WT901BLE67,90856446-A74E-F462-0152-8475C1E77738,1.399,-1.035,0.797,0.000,0.000,0.000,-0.489,0.775,-72.729,30.8,-11.373,-71.6,100,27.60
2025-12-11 22:15:38.090,WT901BLE67,90856446-A74E-F462-0152-8475C1E77738,1.399,-1.035,0.797,0.000,0.000,0.000,-0.489,0.775,-72.729,30.8,-11.373,-71.6,100,27.60
2025-12-11 22:15:38.095,WT901BLE67,90856446-A74E-F462-0152-8475C1E77738,1.399,-1.035,0.797,0.000,0.000,0.000,-0.489,0.775,-72.729,30.8,-11.373,-71.6,100,27.60
2025-12-11 22:15:38.100,WT901BLE67,90856446-A74E-F462-0152-8475C1E77738,1.399,-1.035,0.797,0.000,0.000,0.000,-0.489,0.775,-72.729,30.8,-11.373,-71.6,100,27.60
2025-12-11 22:15:38.105,WT901BLE67,90856446-A74E-F462-0152-8475C1E77738,1.399,-1.035,0.797,0.000,0.000,0.000,-0.489,0.775,-72.729,30.8,-11.373,-71.6,100,27.60
2025-12-11 22:15:38.111,WT901BLE67,90856446-A74E-F462-0152-8475C1E77738,1.399,-1.035,0.797,0.000,0.000,0.000,-0.489,0.775,-72.729,30.8,-11.373,-71.6,100,27.60
2025-12-11 22:15:38.115,WT901BLE67,90856446-A74E-F462-0152-8475C1E77738,1.399,-1.035,0.797,0.000,0.000,0.000,-0.489,0.775,-72.729,30.8,-11.373,-71.6,100,27.60
2025-12-11 22:15:38.118,WT901BLE67,90856446-A74E-F462-0152-8475C1E77738,1.401,-1.032,0.795,0.000,0.000,0.000,-0.489,0.775,-72.729,30.8,-11.373,-71.6,100,27.60
2025-12-11 22:15:38.118,WT901BLE67,90856446-A74E-F462-0152-8475C1E77738,1.401,-1.032,0.796,0.000,0.000,0.000,-0.489,0.775,-72.729,30.8,-11.373,-71.6,100,27.60
2025-12-11 22:15:38.120,WT901BLE67,90856446-A74E-F462-0152-8475C1E77738,1.401,-1.032,0.796,0.000,0.000,0.000,-0.489,0.775,-72.729,30.8,-11.373,-71.6,100,27.60
2025-12-11 22:15:38.125,WT901BLE67,90856446-A74E-F462-0152-8475C1E77738,1.401,-1.032,0.796,0.000,0.000,0.000,-0.489,0.775,-72.729,30.8,-11.373,-71.6,100,27.60
2025-12-11 22:15:38.130,WT901BLE67,90856446-A74E-F462-0152-8475C1E77738,1.401,-1.032,0.796,0.000,0.000,0.000,-0.489,0.775,-72.729,30.8,-11.373,-71.6,100,27.60
2025-12-11 22:15:38.135,WT901BLE67,90856446-A74E-F462-0152-8475C1E77738,1.401,-1.032,0.796,0.000,0.000,0.000,-0.489,0.775,-72.729,30.8,-11.373,-71.6,100,27.60
2025-12-11 22:15:38.140,WT901BLE67,90856446-A74E-F462-0152-8475C1E77738,1.401,-1.032,0.796,0.000,0.000,0.000,-0.489,0.775,-72.729,30.8,-11.373,-71.6,100,27.60
2025-12-11 22:15:38.145,WT901BLE67,90856446-A74E-F462-0152-8475C1E77738,1.401,-1.032,0.796,0.000,0.000,0.000,-0.489,0.775,-72.729,30.8,-11.373,-71.6,100,27.60
2025-12-11 22:15:38.148,WT901BLE67,90856446-A74E-F462-0152-8475C1E77738,1.400,-1.034,0.796,0.000,0.000,0.000,-0.489,0.775,-72.729,30.8,-11.373,-71.6,100,27.60
2025-12-11 22:15:38.150,WT901BLE67,90856446-A74E-F462-0152-8475C1E77738,1.400,-1.034,0.796,0.000,0.000,0.000,-0.489,0.775,-72.729,30.8,-11.373,-71.6,100,27.60
2025-12-11 22:15:38.155,WT901BLE67,90856446-A74E-F462-0152-8475C1E77738,1.400,-1.034,0.796,0.000,0.000,0.000,-0.489,0.775,-72.729,30.8,-11.373,-71.6,100,27.60
2025-12-11 22:15:38.161,WT901BLE67,90856446-A74E-F462-0152-8475C1E77738,1.400,-1.034,0.796,0.000,0.000,0.000,-0.489,0.775,-72.729,30.8,-11.373,-71.6,100,27.60
2025-12-11 22:15:38.165,WT901BLE67,90856446-A74E-F462-0152-8475C1E77738,1.400,-1.034,0.796,0.000,0.000,0.000,-0.489,0.775,-72.729,30.8,-11.373,-71.6,100,27.60
2025-12-11 22:15:38.170,WT901BLE67,90856446-A74E-F462-0152-8475C1E77738,1.400,-1.034,0.796,0.000,0.000,0.000,-0.489,0.775,-72.729,30.8,-11.373,-71.6,100,27.60
2025-12-11 22:15:38.175,WT901BLE67,90856446-A74E-F462-0152-8475C1E77738,1.400,-1.034,0.796,0.000,0.000,0.000,-0.489,0.775,-72.729,30.8,-11.373,-71.6,100,27.60
2025-12-11 22:15:38.180,WT901BLE67,90856446-A74E-F462-0152-8475C1E77738,1.400,-1.034,0.796,0.000,0.000,0.000,-0.489,0.775,-72.729,30.8,-11.373,-71.6,100,27.60
2025-12-11 22:15:38.182,WT901BLE67,90856446-A74E-F462-0152-8475C1E77738,1.400,-1.034,0.795,0.000,0.000,0.000,-0.489,0.775,-72.729,30.8,-11.373,-71.6,100,27.57
2025-12-11 22:15:38.182,WT901BLE67,90856446-A74E-F462-0152-8475C1E77738,1.400,-1.034,0.794,0.000,0.000,0.000,-0.489,0.775,-72.729,30.8,-11.373,-71.6,100,27.57
2025-12-11 22:15:38.185,WT901BLE67,90856446-A74E-F462-0152-8475C1E77738,1.400,-1.034,0.794,0.000,0.000,0.000,-0.489,0.775,-72.729,30.8,-11.373,-71.6,100,27.57
2025-12-11 22:15:38.190,WT901BLE67,90856446-A74E-F462-0152-8475C1E77738,1.400,-1.034,0.794,0.000,0.000,0.000,-0.489,0.775,-72.729,30.8,-11.373,-71.6,100,27.57
2025-12-11 22:15:38.195,WT901BLE67,90856446-A74E-F462-0152-8475C1E77738,1.400,-1.034,0.794,0.000,0.000,0.000,-0.489,0.775,-72.729,30.8,-11.373,-71.6,100,27.57
2025-12-11 22:15:38.200,WT901BLE67,90856446-A74E-F462-0152-8475C1E77738,1.400,-1.034,0.794,0.000,0.000,0.000,-0.489,0.775,-72.729,30.8,-11.373,-71.6,100,27.57
2025-12-11 22:15:38.205,WT901BLE67,90856446-A74E-F462-0152-8475C1E77738,1.400,-1.034,0.794,0.000,0.000,0.000,-0.489,0.775,-72.729,30.8,-11.373,-71.6,100,27.57
2025-12-11 22:15:38.211,WT901BLE67,90856446-A74E-F462-0152-8475C1E77738,1.400,-1.034,0.794,0.000,0.000,0.000,-0.489,0.775,-72.729,30.8,-11.373,-71.6,100,27.57
2025-12-11 22:15:38.215,WT901BLE67,90856446-A74E-F462-0152-8475C1E77738,1.400,-1.034,0.794,0.000,0.000,0.000,-0.489,0.775,-72.729,30.8,-11.373,-71.6,100,27.57
2025-12-11 22:15:38.221,WT901BLE67,90856446-A74E-F462-0152-8475C1E77738,1.400,-1.034,0.794,0.000,0.000,0.000,-0.489,0.775,-72.729,30.8,-11.373,-71.6,100,27.57
2025-12-11 22:15:38.225,WT901BLE67,90856446-A74E-F462-0152-8475C1E77738,1.400,-1.034,0.794,0.000,0.000,0.000,-0.489,0.775,-72.729,30.8,-11.373,-71.6,100,27.57
2025-12-11 22:15:38.230,WT901BLE67,90856446-A74E-F462-0152-8475C1E77738,1.400,-1.034,0.794,0.000,0.000,0.000,-0.489,0.775,-72.729,30.8,-11.373,-71.6,100,27.57
2025-12-11 22:15:38.235,WT901BLE67,90856446-A74E-F462-0152-8475C1E77738,1.400,-1.034,0.794,0.000,0.000,0.000,-0.489,0.775,-72.729,30.8,-11.373,-71.6,100,27.57
2025-12-11 22:15:38.238,WT901BLE67,90856446-A74E-F462-0152-8475C1E77738,1.399,-1.033,0.795,0.000,0.000,0.000,-0.489,0.775,-72.729,30.8,-11.373,-71.6,100,27.57
2025-12-11 22:15:38.238,WT901BLE67,90856446-A74E-F462-0152-8475C1E77738,1.399,-1.034,0.794,0.000,0.000,0.000,-0.489,0.775,-72.729,30.8,-11.373,-71.6,100,27.57
2025-12-11 22:15:38.240,WT901BLE67,90856446-A74E-F462-0152-8475C1E77738,1.399,-1.034,0.794,0.000,0.000,0.000,-0.489,0.775,-72.729,30.8,-11.373,-71.6,100,27.57
2025-12-11 22:15:38.245,WT901BLE67,90856446-A74E-F462-0152-8475C1E77738,1.399,-1.034,0.794,0.000,0.000,0.000,-0.489,0.775,-72.729,30.8,-11.373,-71.6,100,27.57
2025-12-11 22:15:38.250,WT901BLE67,90856446-A74E-F462-0152-8475C1E77738,1.399,-1.034,0.794,0.000,0.000,0.000,-0.489,0.775,-72.729,30.8,-11.373,-71.6,100,27.57
2025-12-11 22:15:38.255,WT901BLE67,90856446-A74E-F462-0152-8475C1E77738,1.399,-1.034,0.794,0.000,0.000,0.000,-0.489,0.775,-72.729,30.8,-11.373,-71.6,100,27.57
2025-12-11 22:15:38.261,WT901BLE67,90856446-A74E-F462-0152-8475C1E77738,1.399,-1.034,0.794,0.000,0.000,0.000,-0.489,0.775,-72.729,30.8,-11.373,-71.6,100,27.57
2025-12-11 22:15:38.265,WT901BLE67,90856446-A74E-F462-0152-8475C1E77738,1.399,-1.034,0.794,0.000,0.000,0.000,-0.489,0.775,-72.729,30.8,-11.373,-71.6,100,27.57
2025-12-11 22:15:38.267,WT901BLE67,90856446-A74E-F462-0152-8475C1E77738,1.401,-1.033,0.795,0.000,0.000,0.000,-0.489,0.775,-72.729,30.8,-11.373,-71.6,100,27.57
2025-12-11 22:15:38.267,WT901BLE67,90856446-A74E-F462-0152-8475C1E77738,1.400,-1.034,0.795,0.000,0.000,0.000,-0.489,0.775,-72.729,30.8,-11.373,-71.6,100,27.57
2025-12-11 22:15:38.270,WT901BLE67,90856446-A74E-F462-0152-8475C1E77738,1.400,-1.034,0.795,0.000,0.000,0.000,-0.489,0.775,-72.729,30.8,-11.373,-71.6,100,27.57
2025-12-11 22:15:38.275,WT901BLE67,90856446-A74E-F462-0152-8475C1E77738,1.400,-1.034,0.795,0.000,0.000,0.000,-0.489,0.775,-72.729,30.8,-11.373,-71.6,100,27.57
2025-12-11 22:15:38.280,WT901BLE67,90856446-A74E-F462-0152-8475C1E77738,1.400,-1.034,0.795,0.000,0.000,0.000,-0.489,0.775,-72.729,30.8,-11.373,-71.6,100,27.57
2025-12-11 22:15:38.285,WT901BLE67,90856446-A74E-F462-0152-8475C1E77738,1.400,-1.034,0.795,0.000,0.000,0.000,-0.489,0.775,-72.729,30.8,-11.373,-71.6,100,27.57
2025-12-11 22:15:38.290,WT901BLE67,90856446-A74E-F462-0152-8475C1E77738,1.400,-1.034,0.795,0.000,0.000,0.000,-0.489,0.775,-72.729,30.8,-11.373,-71.6,100,27.57
2025-12-11 22:15:38.295,WT901BLE67,90856446-A74E-F462-0152-8475C1E77738,1.400,-1.034,0.795,0.000,0.000,0.000,-0.489,0.775,-72.729,30.8,-11.373,-71.6,100,27.57
2025-12-11 22:15:38.298,WT901BLE67,90856446-A74E-F462-0152-8475C1E77738,1.403,-1.035,0.794,0.000,0.000,0.000,-0.489,0.775,-72.729,30.8,-11.373,-71.6,100,27.57
2025-12-11 22:15:38.298,WT901BLE67,90856446-A74E-F462-0152-8475C1E77738,1.401,-1.034,0.796,0.000,0.000,0.000,-0.489,0.775,-72.729,30.8,-11.373,-71.6,100,27.57
2025-12-11 22:15:38.300,WT901BLE67,90856446-A74E-F462-0152-8475C1E77738,1.401,-1.034,0.796,0.000,0.000,0.000,-0.489,0.775,-72.729,30.8,-11.373,-71.6,100,27.57
2025-12-11 22:15:38.305,WT901BLE67,90856446-A74E-F462-0152-8475C1E77738,1.401,-1.034,0.796,0.000,0.000,0.000,-0.489,0.775,-72.729,30.8,-11.373,-71.6,100,27.57
2025-12-11 22:15:38.311,WT901BLE67,90856446-A74E-F462-0152-8475C1E77738,1.401,-1.034,0.796,0.000,0.000,0.000,-0.489,0.775,-72.729,30.8,-11.373,-71.6,100,27.57
2025-12-11 22:15:38.315,WT901BLE67,90856446-A74E-F462-0152-8475C1E77738,1.401,-1.034,0.796,0.000,0.000,0.000,-0.489,0.775,-72.729,30.8,-11.373,-71.6,100,27.57
2025-12-11 22:15:38.320,WT901BLE67,90856446-A74E-F462-0152-8475C1E77738,1.401,-1.034,0.796,0.000,0.000,0.000,-0.489,0.775,-72.729,30.8,-11.373,-71.6,100,27.57
2025-12-11 22:15:38.325,WT901BLE67,90856446-A74E-F462-0152-8475C1E77738,1.401,-1.034,0.796,0.000,0.000,0.000,-0.489,0.775,-72.729,30.8,-11.373,-71.6,100,27.57
2025-12-11 22:15:38.330,WT901BLE67,90856446-A74E-F462-0152-8475C1E77738,1.401,-1.034,0.796,0.000,0.000,0.000,-0.489,0.775,-72.729,30.8,-11.373,-71.6,100,27.57
2025-12-11 22:15:38.335,WT901BLE67,90856446-A74E-F462-0152-8475C1E77738,1.401,-1.034,0.796,0.000,0.000,0.000,-0.489,0.775,-72.729,30.8,-11.373,-71.6,100,27.57
2025-12-11 22:15:38.340,WT901BLE67,90856446-A74E-F462-0152-8475C1E77738,1.401,-1.034,0.796,0.000,0.000,0.000,-0.489,0.775,-72.729,30.8,-11.373,-71.6,100,27.57
2025-12-11 22:15:38.345,WT901BLE67,90856446-A74E-F462-0152-8475C1E77738,1.401,-1.034,0.796,0.000,0.000,0.000,-0.489,0.775,-72.729,30.8,-11.373,-71.6,100,27.57
2025-12-11 22:15:38.350,WT901BLE67,90856446-A74E-F462-0152-8475C1E77738,1.401,-1.034,0.796,0.000,0.000,0.000,-0.489,0.775,-72.729,30.8,-11.373,-71.6,100,27.57
2025-12-11 22:15:38.355,WT901BLE67,90856446-A74E-F462-0152-8475C1E77738,1.401,-1.034,0.796,0.000,0.000,0.000,-0.489,0.775,-72.729,30.8,-11.373,-71.6,100,27.57
2025-12-11 22:15:38.358,WT901BLE67,90856446-A74E-F462-0152-8475C1E77738,1.399,-1.033,0.795,0.000,0.000,0.000,-0.489,0.775,-72.729,30.8,-11.373,-71.6,100,27.57
2025-12-11 22:15:38.358,WT901BLE67,90856446-A74E-F462-0152-8475C1E77738,1.400,-1.035,0.795,0.000,0.000,0.000,-0.489,0.775,-72.729,30.8,-11.373,-71.6,100,27.57
2025-12-11 22:15:38.361,WT901BLE67,90856446-A74E-F462-0152-8475C1E77738,1.400,-1.035,0.795,0.000,0.000,0.000,-0.489,0.775,-72.729,30.8,-11.373,-71.6,100,27.57
2025-12-11 22:15:38.365,WT901BLE67,90856446-A74E-F462-0152-8475C1E77738,1.400,-1.035,0.795,0.000,0.000,0.000,-0.489,0.775,-72.729,30.8,-11.373,-71.6,100,27.57
2025-12-11 22:15:38.370,WT901BLE67,90856446-A74E-F462-0152-8475C1E77738,1.400,-1.035,0.795,0.000,0.000,0.000,-0.489,0.775,-72.729,30.8,-11.373,-71.6,100,27.57
2025-12-11 22:15:38.375,WT901BLE67,90856446-A74E-F462-0152-8475C1E77738,1.400,-1.035,0.795,0.000,0.000,0.000,-0.489,0.775,-72.729,30.8,-11.373,-71.6,100,27.57
2025-12-11 22:15:38.380,WT901BLE67,90856446-A74E-F462-0152-8475C1E77738,1.400,-1.035,0.795,0.000,0.000,0.000,-0.489,0.775,-72.729,30.8,-11.373,-71.6,100,27.57
2025-12-11 22:15:38.385,WT901BLE67,90856446-A74E-F462-0152-8475C1E77738,1.400,-1.035,0.795,0.000,0.000,0.000,-0.489,0.775,-72.729,30.8,-11.373,-71.6,100,27.57
2025-12-11 22:15:38.387,WT901BLE67,90856446-A74E-F462-0152-8475C1E77738,1.402,-1.033,0.795,0.000,0.000,0.000,-0.489,0.775,-72.729,30.8,-11.373,-71.6,100,27.57
2025-12-11 22:15:38.387,WT901BLE67,90856446-A74E-F462-0152-8475C1E77738,1.400,-1.033,0.797,0.000,0.000,0.000,-0.489,0.775,-72.729,30.8,-11.373,-71.6,100,27.57
2025-12-11 22:15:38.390,WT901BLE67,90856446-A74E-F462-0152-8475C1E77738,1.400,-1.033,0.797,0.000,0.000,0.000,-0.489,0.775,-72.729,30.8,-11.373,-71.6,100,27.57
2025-12-11 22:15:38.395,WT901BLE67,90856446-A74E-F462-0152-8475C1E77738,1.400,-1.033,0.797,0.000,0.000,0.000,-0.489,0.775,-72.729,30.8,-11.373,-71.6,100,27.57
2025-12-11 22:15:38.400,WT901BLE67,90856446-A74E-F462-0152-8475C1E77738,1.400,-1.033,0.797,0.000,0.000,0.000,-0.489,0.775,-72.729,30.8,-11.373,-71.6,100,27.57
2025-12-11 22:15:38.405,WT901BLE67,90856446-A74E-F462-0152-8475C1E77738,1.400,-1.033,0.797,0.000,0.000,0.000,-0.489,0.775,-72.729,30.8,-11.373,-71.6,100,27.57
2025-12-11 22:15:38.411,WT901BLE67,90856446-A74E-F462-0152-8475C1E77738,1.400,-1.033,0.797,0.000,0.000,0.000,-0.489,0.775,-72.729,30.8,-11.373,-71.6,100,27.57
2025-12-11 22:15:38.415,WT901BLE67,90856446-A74E-F462-0152-8475C1E77738,1.400,-1.033,0.797,0.000,0.000,0.000,-0.489,0.775,-72.729,30.8,-11.373,-71.6,100,27.57
2025-12-11 22:15:38.417,WT901BLE67,90856446-A74E-F462-0152-8475C1E77738,1.402,-1.034,0.795,0.000,0.000,0.000,-0.489,0.775,-72.729,30.8,-11.373,-71.6,100,27.57
2025-12-11 22:15:38.417,WT901BLE67,90856446-A74E-F462-0152-8475C1E77738,1.400,-1.034,0.797,0.000,0.000,0.000,-0.489,0.775,-72.729,30.8,-11.373,-71.6,100,27.57
2025-12-11 22:15:38.420,WT901BLE67,90856446-A74E-F462-0152-8475C1E77738,1.400,-1.034,0.797,0.000,0.000,0.000,-0.489,0.775,-72.729,30.8,-11.373,-71.6,100,27.57
2025-12-11 22:15:38.425,WT901BLE67,90856446-A74E-F462-0152-8475C1E77738,1.400,-1.034,0.797,0.000,0.000,0.000,-0.489,0.775,-72.729,30.8,-11.373,-71.6,100,27.57
2025-12-11 22:15:38.430,WT901BLE67,90856446-A74E-F462-0152-8475C1E77738,1.400,-1.034,0.797,0.000,0.000,0.000,-0.489,0.775,-72.729,30.8,-11.373,-71.6,100,27.57
2025-12-11 22:15:38.435,WT901BLE67,90856446-A74E-F462-0152-8475C1E77738,1.400,-1.034,0.797,0.000,0.000,0.000,-0.489,0.775,-72.729,30.8,-11.373,-71.6,100,27.57
2025-12-11 22:15:38.440,WT901BLE67,90856446-A74E-F462-0152-8475C1E77738,1.400,-1.034,0.797,0.000,0.000,0.000,-0.489,0.775,-72.729,30.8,-11.373,-71.6,100,27.57
2025-12-11 22:15:38.445,WT901BLE67,90856446-A74E-F462-0152-8475C1E77738,1.400,-1.034,0.797,0.000,0.000,0.000,-0.489,0.775,-72.729,30.8,-11.373,-71.6,100,27.57
2025-12-11 22:15:38.450,WT901BLE67,90856446-A74E-F462-0152-8475C1E77738,1.400,-1.034,0.797,0.000,0.000,0.000,-0.489,0.775,-72.729,30.8,-11.373,-71.6,100,27.57
2025-12-11 22:15:38.455,WT901BLE67,90856446-A74E-F462-0152-8475C1E77738,1.400,-1.034,0.797,0.000,0.000,0.000,-0.489,0.775,-72.729,30.8,-11.373,-71.6,100,27.57
2025-12-11 22:15:38.461,WT901BLE67,90856446-A74E-F462-0152-8475C1E77738,1.400,-1.034,0.797,0.000,0.000,0.000,-0.489,0.775,-72.729,30.8,-11.373,-71.6,100,27.57
2025-12-11 22:15:38.465,WT901BLE67,90856446-A74E-F462-0152-8475C1E77738,1.400,-1.034,0.797,0.000,0.000,0.000,-0.489,0.775,-72.729,30.8,-11.373,-71.6,100,27.57
2025-12-11 22:15:38.470,WT901BLE67,90856446-A74E-F462-0152-8475C1E77738,1.400,-1.034,0.797,0.000,0.000,0.000,-0.489,0.775,-72.729,30.8,-11.373,-71.6,100,27.57
2025-12-11 22:15:38.475,WT901BLE67,90856446-A74E-F462-0152-8475C1E77738,1.400,-1.034,0.797,0.000,0.000,0.000,-0.489,0.775,-72.729,30.8,-11.373,-71.6,100,27.57
2025-12-11 22:15:38.479,WT901BLE67,90856446-A74E-F462-0152-8475C1E77738,1.402,-1.034,0.796,0.000,0.000,0.000,-0.489,0.775,-72.729,30.8,-11.373,-71.6,100,27.57
2025-12-11 22:15:38.479,WT901BLE67,90856446-A74E-F462-0152-8475C1E77738,1.399,-1.035,0.794,0.000,0.000,0.000,-0.489,0.775,-72.729,30.8,-11.373,-71.6,100,27.57
2025-12-11 22:15:38.480,WT901BLE67,90856446-A74E-F462-0152-8475C1E77738,1.399,-1.035,0.794,0.000,0.000,0.000,-0.489,0.775,-72.729,30.8,-11.373,-71.6,100,27.57
2025-12-11 22:15:38.485,WT901BLE67,90856446-A74E-F462-0152-8475C1E77738,1.399,-1.035,0.794,0.000,0.000,0.000,-0.489,0.775,-72.729,30.8,-11.373,-71.6,100,27.57
2025-12-11 22:15:38.490,WT901BLE67,90856446-A74E-F462-0152-8475C1E77738,1.399,-1.035,0.794,0.000,0.000,0.000,-0.489,0.775,-72.729,30.8,-11.373,-71.6,100,27.57
2025-12-11 22:15:38.495,WT901BLE67,90856446-A74E-F462-0152-8475C1E77738,1.399,-1.035,0.794,0.000,0.000,0.000,-0.489,0.775,-72.729,30.8,-11.373,-71.6,100,27.57
2025-12-11 22:15:38.500,WT901BLE67,90856446-A74E-F462-0152-8475C1E77738,1.399,-1.035,0.794,0.000,0.000,0.000,-0.489,0.775,-72.729,30.8,-11.373,-71.6,100,27.57
2025-12-11 22:15:38.505,WT901BLE67,90856446-A74E-F462-0152-8475C1E77738,1.399,-1.035,0.794,0.000,0.000,0.000,-0.489,0.775,-72.729,30.8,-11.373,-71.6,100,27.57
2025-12-11 22:15:38.508,WT901BLE67,90856446-A74E-F462-0152-8475C1E77738,1.401,-1.033,0.796,0.000,0.000,0.000,-0.489,0.775,-72.729,30.8,-11.373,-71.6,100,27.57
2025-12-11 22:15:38.508,WT901BLE67,90856446-A74E-F462-0152-8475C1E77738,1.400,-1.033,0.797,0.000,0.000,0.000,-0.489,0.775,-72.729,30.8,-11.373,-71.6,100,27.57
2025-12-11 22:15:38.511,WT901BLE67,90856446-A74E-F462-0152-8475C1E77738,1.400,-1.033,0.797,0.000,0.000,0.000,-0.489,0.775,-72.729,30.8,-11.373,-71.6,100,27.57
2025-12-11 22:15:38.515,WT901BLE67,90856446-A74E-F462-0152-8475C1E77738,1.400,-1.033,0.797,0.000,0.000,0.000,-0.489,0.775,-72.729,30.8,-11.373,-71.6,100,27.57
2025-12-11 22:15:38.520,WT901BLE67,90856446-A74E-F462-0152-8475C1E77738,1.400,-1.033,0.797,0.000,0.000,0.000,-0.489,0.775,-72.729,30.8,-11.373,-71.6,100,27.57
2025-12-11 22:15:38.525,WT901BLE67,90856446-A74E-F462-0152-8475C1E77738,1.400,-1.033,0.797,0.000,0.000,0.000,-0.489,0.775,-72.729,30.8,-11.373,-71.6,100,27.57
2025-12-11 22:15:38.530,WT901BLE67,90856446-A74E-F462-0152-8475C1E77738,1.400,-1.033,0.797,0.000,0.000,0.000,-0.489,0.775,-72.729,30.8,-11.373,-71.6,100,27.57
2025-12-11 22:15:38.535,WT901BLE67,90856446-A74E-F462-0152-8475C1E77738,1.400,-1.033,0.797,0.000,0.000,0.000,-0.489,0.775,-72.729,30.8,-11.373,-71.6,100,27.57
2025-12-11 22:15:38.537,WT901BLE67,90856446-A74E-F462-0152-8475C1E77738,1.401,-1.033,0.795,0.000,0.000,0.000,-0.489,0.775,-72.729,30.8,-11.373,-71.6,100,27.57
2025-12-11 22:15:38.537,WT901BLE67,90856446-A74E-F462-0152-8475C1E77738,1.400,-1.035,0.795,0.000,0.000,0.000,-0.489,0.775,-72.729,30.8,-11.373,-71.6,100,27.57
2025-12-11 22:15:38.540,WT901BLE67,90856446-A74E-F462-0152-8475C1E77738,1.400,-1.035,0.795,0.000,0.000,0.000,-0.489,0.775,-72.729,30.8,-11.373,-71.6,100,27.57
2025-12-11 22:15:38.545,WT901BLE67,90856446-A74E-F462-0152-8475C1E77738,1.400,-1.035,0.795,0.000,0.000,0.000,-0.489,0.775,-72.729,30.8,-11.373,-71.6,100,27.57
2025-12-11 22:15:38.550,WT901BLE67,90856446-A74E-F462-0152-8475C1E77738,1.400,-1.035,0.795,0.000,0.000,0.000,-0.489,0.775,-72.729,30.8,-11.373,-71.6,100,27.57
2025-12-11 22:15:38.555,WT901BLE67,90856446-A74E-F462-0152-8475C1E77738,1.400,-1.035,0.795,0.000,0.000,0.000,-0.489,0.775,-72.729,30.8,-11.373,-71.6,100,27.57
2025-12-11 22:15:38.561,WT901BLE67,90856446-A74E-F462-0152-8475C1E77738,1.400,-1.035,0.795,0.000,0.000,0.000,-0.489,0.775,-72.729,30.8,-11.373,-71.6,100,27.57
2025-12-11 22:15:38.565,WT901BLE67,90856446-A74E-F462-0152-8475C1E77738,1.400,-1.035,0.795,0.000,0.000,0.000,-0.489,0.775,-72.729,30.8,-11.373,-71.6,100,27.57
2025-12-11 22:15:38.570,WT901BLE67,90856446-A74E-F462-0152-8475C1E77738,1.400,-1.035,0.795,0.000,0.000,0.000,-0.489,0.775,-72.729,30.8,-11.373,-71.6,100,27.57
2025-12-11 22:15:38.575,WT901BLE67,90856446-A74E-F462-0152-8475C1E77738,1.400,-1.035,0.795,0.000,0.000,0.000,-0.489,0.775,-72.729,30.8,-11.373,-71.6,100,27.57
2025-12-11 22:15:38.580,WT901BLE67,90856446-A74E-F462-0152-8475C1E77738,1.400,-1.035,0.795,0.000,0.000,0.000,-0.489,0.775,-72.729,30.8,-11.373,-71.6,100,27.57
2025-12-11 22:15:38.585,WT901BLE67,90856446-A74E-F462-0152-8475C1E77738,1.400,-1.035,0.795,0.000,0.000,0.000,-0.489,0.775,-72.729,30.8,-11.373,-71.6,100,27.57
2025-12-11 22:15:38.590,WT901BLE67,90856446-A74E-F462-0152-8475C1E77738,1.400,-1.035,0.795,0.000,0.000,0.000,-0.489,0.775,-72.729,30.8,-11.373,-71.6,100,27.57
2025-12-11 22:15:38.595,WT901BLE67,90856446-A74E-F462-0152-8475C1E77738,1.400,-1.035,0.795,0.000,0.000,0.000,-0.489,0.775,-72.729,30.8,-11.373,-71.6,100,27.57
2025-12-11 22:15:38.598,WT901BLE67,90856446-A74E-F462-0152-8475C1E77738,1.401,-1.032,0.797,0.000,0.000,0.000,-0.489,0.775,-72.729,30.8,-11.373,-71.6,100,27.57
2025-12-11 22:15:38.598,WT901BLE67,90856446-A74E-F462-0152-8475C1E77738,1.400,-1.032,0.795,0.000,0.000,0.000,-0.489,0.775,-72.729,30.8,-11.373,-71.6,100,27.57
2025-12-11 22:15:38.600,WT901BLE67,90856446-A74E-F462-0152-8475C1E77738,1.400,-1.032,0.795,0.000,0.000,0.000,-0.489,0.775,-72.729,30.8,-11.373,-71.6,100,27.57
2025-12-11 22:15:38.605,WT901BLE67,90856446-A74E-F462-0152-8475C1E77738,1.400,-1.032,0.795,0.000,0.000,0.000,-0.489,0.775,-72.729,30.8,-11.373,-71.6,100,27.57
2025-12-11 22:15:38.611,WT901BLE67,90856446-A74E-F462-0152-8475C1E77738,1.400,-1.032,0.795,0.000,0.000,0.000,-0.489,0.775,-72.729,30.8,-11.373,-71.6,100,27.57
2025-12-11 22:15:38.615,WT901BLE67,90856446-A74E-F462-0152-8475C1E77738,1.400,-1.032,0.795,0.000,0.000,0.000,-0.489,0.775,-72.729,30.8,-11.373,-71.6,100,27.57
2025-12-11 22:15:38.620,WT901BLE67,90856446-A74E-F462-0152-8475C1E77738,1.400,-1.032,0.795,0.000,0.000,0.000,-0.489,0.775,-72.729,30.8,-11.373,-71.6,100,27.57
2025-12-11 22:15:38.625,WT901BLE67,90856446-A74E-F462-0152-8475C1E77738,1.400,-1.032,0.795,0.000,0.000,0.000,-0.489,0.775,-72.729,30.8,-11.373,-71.6,100,27.57
2025-12-11 22:15:38.629,WT901BLE67,90856446-A74E-F462-0152-8475C1E77738,1.400,-1.034,0.796,0.000,0.000,0.000,-0.489,0.775,-72.729,30.8,-11.373,-71.6,100,27.57
2025-12-11 22:15:38.630,WT901BLE67,90856446-A74E-F462-0152-8475C1E77738,1.399,-1.033,0.794,0.000,0.000,0.000,-0.489,0.775,-72.729,30.8,-11.373,-71.6,100,27.57
2025-12-11 22:15:38.630,WT901BLE67,90856446-A74E-F462-0152-8475C1E77738,1.399,-1.033,0.794,0.000,0.000,0.000,-0.489,0.775,-72.729,30.8,-11.373,-71.6,100,27.57
2025-12-11 22:15:38.635,WT901BLE67,90856446-A74E-F462-0152-8475C1E77738,1.399,-1.033,0.794,0.000,0.000,0.000,-0.489,0.775,-72.729,30.8,-11.373,-71.6,100,27.57
2025-12-11 22:15:38.640,WT901BLE67,90856446-A74E-F462-0152-8475C1E77738,1.399,-1.033,0.794,0.000,0.000,0.000,-0.489,0.775,-72.729,30.8,-11.373,-71.6,100,27.57
2025-12-11 22:15:38.645,WT901BLE67,90856446-A74E-F462-0152-8475C1E77738,1.399,-1.033,0.794,0.000,0.000,0.000,-0.489,0.775,-72.729,30.8,-11.373,-71.6,100,27.57
2025-12-11 22:15:38.650,WT901BLE67,90856446-A74E-F462-0152-8475C1E77738,1.399,-1.033,0.794,0.000,0.000,0.000,-0.489,0.775,-72.729,30.8,-11.373,-71.6,100,27.57
2025-12-11 22:15:38.655,WT901BLE67,90856446-A74E-F462-0152-8475C1E77738,1.399,-1.033,0.794,0.000,0.000,0.000,-0.489,0.775,-72.729,30.8,-11.373,-71.6,100,27.57
2025-12-11 22:15:38.661,WT901BLE67,90856446-A74E-F462-0152-8475C1E77738,1.400,-1.034,0.796,0.000,0.000,0.000,-0.489,0.775,-72.729,30.8,-11.373,-71.6,100,27.57
2025-12-11 22:15:38.662,WT901BLE67,90856446-A74E-F462-0152-8475C1E77738,1.401,-1.031,0.796,0.000,0.000,0.000,-0.489,0.775,-72.729,30.8,-11.373,-71.6,100,27.57
2025-12-11 22:15:38.662,WT901BLE67,90856446-A74E-F462-0152-8475C1E77738,1.401,-1.031,0.796,0.000,0.000,0.000,-0.489,0.775,-72.729,30.8,-11.373,-71.6,100,27.57
2025-12-11 22:15:38.665,WT901BLE67,90856446-A74E-F462-0152-8475C1E77738,1.401,-1.031,0.796,0.000,0.000,0.000,-0.489,0.775,-72.729,30.8,-11.373,-71.6,100,27.57
2025-12-11 22:15:38.670,WT901BLE67,90856446-A74E-F462-0152-8475C1E77738,1.401,-1.031,0.796,0.000,0.000,0.000,-0.489,0.775,-72.729,30.8,-11.373,-71.6,100,27.57
2025-12-11 22:15:38.675,WT901BLE67,90856446-A74E-F462-0152-8475C1E77738,1.401,-1.031,0.796,0.000,0.000,0.000,-0.489,0.775,-72.729,30.8,-11.373,-71.6,100,27.57
2025-12-11 22:15:38.680,WT901BLE67,90856446-A74E-F462-0152-8475C1E77738,1.401,-1.031,0.796,0.000,0.000,0.000,-0.489,0.775,-72.729,30.8,-11.373,-71.6,100,27.57
2025-12-11 22:15:38.685,WT901BLE67,90856446-A74E-F462-0152-8475C1E77738,1.401,-1.031,0.796,0.000,0.000,0.000,-0.489,0.775,-72.729,30.8,-11.373,-71.6,100,27.57
2025-12-11 22:15:38.690,WT901BLE67,90856446-A74E-F462-0152-8475C1E77738,1.401,-1.031,0.796,0.000,0.000,0.000,-0.489,0.775,-72.729,30.8,-11.373,-71.6,100,27.57
2025-12-11 22:15:38.695,WT901BLE67,90856446-A74E-F462-0152-8475C1E77738,1.401,-1.031,0.796,0.000,0.000,0.000,-0.489,0.775,-72.729,30.8,-11.373,-71.6,100,27.57
2025-12-11 22:15:38.700,WT901BLE67,90856446-A74E-F462-0152-8475C1E77738,1.401,-1.031,0.796,0.000,0.000,0.000,-0.489,0.775,-72.729,30.8,-11.373,-71.6,100,27.57
2025-12-11 22:15:38.705,WT901BLE67,90856446-A74E-F462-0152-8475C1E77738,1.401,-1.031,0.796,0.000,0.000,0.000,-0.489,0.775,-72.729,30.8,-11.373,-71.6,100,27.57
2025-12-11 22:15:38.711,WT901BLE67,90856446-A74E-F462-0152-8475C1E77738,1.401,-1.031,0.796,0.000,0.000,0.000,-0.489,0.775,-72.729,30.8,-11.373,-71.6,100,27.57
2025-12-11 22:15:38.715,WT901BLE67,90856446-A74E-F462-0152-8475C1E77738,1.401,-1.031,0.796,0.000,0.000,0.000,-0.489,0.775,-72.729,30.8,-11.373,-71.6,100,27.57
2025-12-11 22:15:38.718,WT901BLE67,90856446-A74E-F462-0152-8475C1E77738,1.401,-1.034,0.793,0.000,0.000,0.000,-0.489,0.775,-72.729,30.8,-11.373,-71.6,100,27.57
2025-12-11 22:15:38.718,WT901BLE67,90856446-A74E-F462-0152-8475C1E77738,1.399,-1.034,0.796,0.000,0.000,0.000,-0.489,0.775,-72.724,30.8,-11.373,-71.6,100,27.57
2025-12-11 22:15:38.720,WT901BLE67,90856446-A74E-F462-0152-8475C1E77738,1.399,-1.034,0.796,0.000,0.000,0.000,-0.489,0.775,-72.724,30.8,-11.373,-71.6,100,27.57
2025-12-11 22:15:38.725,WT901BLE67,90856446-A74E-F462-0152-8475C1E77738,1.399,-1.034,0.796,0.000,0.000,0.000,-0.489,0.775,-72.724,30.8,-11.373,-71.6,100,27.57
2025-12-11 22:15:38.730,WT901BLE67,90856446-A74E-F462-0152-8475C1E77738,1.399,-1.034,0.796,0.000,0.000,0.000,-0.489,0.775,-72.724,30.8,-11.373,-71.6,100,27.57
2025-12-11 22:15:38.735,WT901BLE67,90856446-A74E-F462-0152-8475C1E77738,1.399,-1.034,0.796,0.000,0.000,0.000,-0.489,0.775,-72.724,30.8,-11.373,-71.6,100,27.57
2025-12-11 22:15:38.740,WT901BLE67,90856446-A74E-F462-0152-8475C1E77738,1.399,-1.034,0.796,0.000,0.000,0.000,-0.489,0.775,-72.724,30.8,-11.373,-71.6,100,27.57
2025-12-11 22:15:38.745,WT901BLE67,90856446-A74E-F462-0152-8475C1E77738,1.399,-1.034,0.796,0.000,0.000,0.000,-0.489,0.775,-72.724,30.8,-11.373,-71.6,100,27.57
2025-12-11 22:15:38.747,WT901BLE67,90856446-A74E-F462-0152-8475C1E77738,1.401,-1.032,0.794,0.000,0.000,0.000,-0.489,0.775,-72.724,30.8,-11.373,-71.6,100,27.57
2025-12-11 22:15:38.748,WT901BLE67,90856446-A74E-F462-0152-8475C1E77738,1.401,-1.034,0.795,0.000,0.000,0.000,-0.489,0.775,-72.724,30.8,-11.373,-71.6,100,27.57
2025-12-11 22:15:38.750,WT901BLE67,90856446-A74E-F462-0152-8475C1E77738,1.401,-1.034,0.795,0.000,0.000,0.000,-0.489,0.775,-72.724,30.8,-11.373,-71.6,100,27.57
2025-12-11 22:15:38.755,WT901BLE67,90856446-A74E-F462-0152-8475C1E77738,1.401,-1.034,0.795,0.000,0.000,0.000,-0.489,0.775,-72.724,30.8,-11.373,-71.6,100,27.57
2025-12-11 22:15:38.761,WT901BLE67,90856446-A74E-F462-0152-8475C1E77738,1.401,-1.034,0.795,0.000,0.000,0.000,-0.489,0.775,-72.724,30.8,-11.373,-71.6,100,27.57
2025-12-11 22:15:38.765,WT901BLE67,90856446-A74E-F462-0152-8475C1E77738,1.401,-1.034,0.795,0.000,0.000,0.000,-0.489,0.775,-72.724,30.8,-11.373,-71.6,100,27.57
2025-12-11 22:15:38.770,WT901BLE67,90856446-A74E-F462-0152-8475C1E77738,1.401,-1.034,0.795,0.000,0.000,0.000,-0.489,0.775,-72.724,30.8,-11.373,-71.6,100,27.57
2025-12-11 22:15:38.775,WT901BLE67,90856446-A74E-F462-0152-8475C1E77738,1.401,-1.034,0.795,0.000,0.000,0.000,-0.489,0.775,-72.724,30.8,-11.373,-71.6,100,27.57
2025-12-11 22:15:38.779,WT901BLE67,90856446-A74E-F462-0152-8475C1E77738,1.401,-1.033,0.795,0.000,0.000,0.000,-0.489,0.775,-72.724,30.8,-11.373,-71.6,100,27.57
2025-12-11 22:15:38.779,WT901BLE67,90856446-A74E-F462-0152-8475C1E77738,1.400,-1.033,0.795,0.000,0.000,0.000,-0.489,0.775,-72.724,30.8,-11.373,-71.6,100,27.57
2025-12-11 22:15:38.780,WT901BLE67,90856446-A74E-F462-0152-8475C1E77738,1.400,-1.033,0.795,0.000,0.000,0.000,-0.489,0.775,-72.724,30.8,-11.373,-71.6,100,27.57
2025-12-11 22:15:38.785,WT901BLE67,90856446-A74E-F462-0152-8475C1E77738,1.400,-1.033,0.795,0.000,0.000,0.000,-0.489,0.775,-72.724,30.8,-11.373,-71.6,100,27.57
2025-12-11 22:15:38.790,WT901BLE67,90856446-A74E-F462-0152-8475C1E77738,1.400,-1.033,0.795,0.000,0.000,0.000,-0.489,0.775,-72.724,30.8,-11.373,-71.6,100,27.57
2025-12-11 22:15:38.795,WT901BLE67,90856446-A74E-F462-0152-8475C1E77738,1.400,-1.033,0.795,0.000,0.000,0.000,-0.489,0.775,-72.724,30.8,-11.373,-71.6,100,27.57
2025-12-11 22:15:38.800,WT901BLE67,90856446-A74E-F462-0152-8475C1E77738,1.400,-1.033,0.795,0.000,0.000,0.000,-0.489,0.775,-72.724,30.8,-11.373,-71.6,100,27.57
2025-12-11 22:15:38.805,WT901BLE67,90856446-A74E-F462-0152-8475C1E77738,1.400,-1.033,0.795,0.000,0.000,0.000,-0.489,0.775,-72.724,30.8,-11.373,-71.6,100,27.57
2025-12-11 22:15:38.811,WT901BLE67,90856446-A74E-F462-0152-8475C1E77738,1.400,-1.033,0.795,0.000,0.000,0.000,-0.489,0.775,-72.724,30.8,-11.373,-71.6,100,27.57
2025-12-11 22:15:38.815,WT901BLE67,90856446-A74E-F462-0152-8475C1E77738,1.400,-1.033,0.795,0.000,0.000,0.000,-0.489,0.775,-72.724,30.8,-11.373,-71.6,100,27.57
2025-12-11 22:15:38.820,WT901BLE67,90856446-A74E-F462-0152-8475C1E77738,1.400,-1.033,0.795,0.000,0.000,0.000,-0.489,0.775,-72.724,30.8,-11.373,-71.6,100,27.57
2025-12-11 22:15:38.825,WT901BLE67,90856446-A74E-F462-0152-8475C1E77738,1.400,-1.033,0.795,0.000,0.000,0.000,-0.489,0.775,-72.724,30.8,-11.373,-71.6,100,27.57
2025-12-11 22:15:38.830,WT901BLE67,90856446-A74E-F462-0152-8475C1E77738,1.400,-1.033,0.795,0.000,0.000,0.000,-0.489,0.775,-72.724,30.8,-11.373,-71.6,100,27.57
2025-12-11 22:15:38.835,WT901BLE67,90856446-A74E-F462-0152-8475C1E77738,1.400,-1.033,0.795,0.000,0.000,0.000,-0.489,0.775,-72.724,30.8,-11.373,-71.6,100,27.57
2025-12-11 22:15:38.838,WT901BLE67,90856446-A74E-F462-0152-8475C1E77738,1.401,-1.033,0.797,0.000,0.000,0.000,-0.489,0.775,-72.724,30.8,-11.373,-71.6,100,27.57
2025-12-11 22:15:38.838,WT901BLE67,90856446-A74E-F462-0152-8475C1E77738,1.400,-1.034,0.796,0.000,0.000,0.000,-0.489,0.775,-72.724,30.8,-11.373,-71.6,100,27.57
2025-12-11 22:15:38.840,WT901BLE67,90856446-A74E-F462-0152-8475C1E77738,1.400,-1.034,0.796,0.000,0.000,0.000,-0.489,0.775,-72.724,30.8,-11.373,-71.6,100,27.57
2025-12-11 22:15:38.845,WT901BLE67,90856446-A74E-F462-0152-8475C1E77738,1.400,-1.034,0.796,0.000,0.000,0.000,-0.489,0.775,-72.724,30.8,-11.373,-71.6,100,27.57
2025-12-11 22:15:38.850,WT901BLE67,90856446-A74E-F462-0152-8475C1E77738,1.400,-1.034,0.796,0.000,0.000,0.000,-0.489,0.775,-72.724,30.8,-11.373,-71.6,100,27.57
2025-12-11 22:15:38.855,WT901BLE67,90856446-A74E-F462-0152-8475C1E77738,1.400,-1.034,0.796,0.000,0.000,0.000,-0.489,0.775,-72.724,30.8,-11.373,-71.6,100,27.57
2025-12-11 22:15:38.862,WT901BLE67,90856446-A74E-F462-0152-8475C1E77738,1.400,-1.034,0.796,0.000,0.000,0.000,-0.489,0.775,-72.724,30.8,-11.373,-71.6,100,27.57
2025-12-11 22:15:38.865,WT901BLE67,90856446-A74E-F462-0152-8475C1E77738,1.400,-1.034,0.796,0.000,0.000,0.000,-0.489,0.775,-72.724,30.8,-11.373,-71.6,100,27.57
2025-12-11 22:15:38.867,WT901BLE67,90856446-A74E-F462-0152-8475C1E77738,1.401,-1.033,0.796,0.000,0.000,0.000,-0.489,0.775,-72.724,30.8,-11.373,-71.6,100,27.57
2025-12-11 22:15:38.867,WT901BLE67,90856446-A74E-F462-0152-8475C1E77738,1.401,-1.034,0.795,0.000,0.000,0.000,-0.489,0.775,-72.724,30.8,-11.373,-71.6,100,27.57
2025-12-11 22:15:38.870,WT901BLE67,90856446-A74E-F462-0152-8475C1E77738,1.401,-1.034,0.795,0.000,0.000,0.000,-0.489,0.775,-72.724,30.8,-11.373,-71.6,100,27.57
2025-12-11 22:15:38.875,WT901BLE67,90856446-A74E-F462-0152-8475C1E77738,1.401,-1.034,0.795,0.000,0.000,0.000,-0.489,0.775,-72.724,30.8,-11.373,-71.6,100,27.57
2025-12-11 22:15:38.880,WT901BLE67,90856446-A74E-F462-0152-8475C1E77738,1.401,-1.034,0.795,0.000,0.000,0.000,-0.489,0.775,-72.724,30.8,-11.373,-71.6,100,27.57
2025-12-11 22:15:38.885,WT901BLE67,90856446-A74E-F462-0152-8475C1E77738,1.401,-1.034,0.795,0.000,0.000,0.000,-0.489,0.775,-72.724,30.8,-11.373,-71.6,100,27.57
2025-12-11 22:15:38.890,WT901BLE67,90856446-A74E-F462-0152-8475C1E77738,1.401,-1.034,0.795,0.000,0.000,0.000,-0.489,0.775,-72.724,30.8,-11.373,-71.6,100,27.57
2025-12-11 22:15:38.895,WT901BLE67,90856446-A74E-F462-0152-8475C1E77738,1.401,-1.034,0.795,0.000,0.000,0.000,-0.489,0.775,-72.724,30.8,-11.373,-71.6,100,27.57
2025-12-11 22:15:38.898,WT901BLE67,90856446-A74E-F462-0152-8475C1E77738,1.400,-1.035,0.795,0.000,0.000,0.000,-0.489,0.775,-72.724,30.8,-11.373,-71.6,100,27.57
2025-12-11 22:15:38.898,WT901BLE67,90856446-A74E-F462-0152-8475C1E77738,1.401,-1.034,0.793,0.000,0.000,0.000,-0.489,0.775,-72.724,30.8,-11.373,-71.6,100,27.57
2025-12-11 22:15:38.900,WT901BLE67,90856446-A74E-F462-0152-8475C1E77738,1.401,-1.034,0.793,0.000,0.000,0.000,-0.489,0.775,-72.724,30.8,-11.373,-71.6,100,27.57
2025-12-11 22:15:38.905,WT901BLE67,90856446-A74E-F462-0152-8475C1E77738,1.401,-1.034,0.793,0.000,0.000,0.000,-0.489,0.775,-72.724,30.8,-11.373,-71.6,100,27.57
2025-12-11 22:15:38.912,WT901BLE67,90856446-A74E-F462-0152-8475C1E77738,1.401,-1.034,0.793,0.000,0.000,0.000,-0.489,0.775,-72.724,30.8,-11.373,-71.6,100,27.57
2025-12-11 22:15:38.915,WT901BLE67,90856446-A74E-F462-0152-8475C1E77738,1.401,-1.034,0.793,0.000,0.000,0.000,-0.489,0.775,-72.724,30.8,-11.373,-71.6,100,27.57
2025-12-11 22:15:38.920,WT901BLE67,90856446-A74E-F462-0152-8475C1E77738,1.401,-1.034,0.793,0.000,0.000,0.000,-0.489,0.775,-72.724,30.8,-11.373,-71.6,100,27.57
2025-12-11 22:15:38.925,WT901BLE67,90856446-A74E-F462-0152-8475C1E77738,1.401,-1.034,0.793,0.000,0.000,0.000,-0.489,0.775,-72.724,30.8,-11.373,-71.6,100,27.57
2025-12-11 22:15:38.930,WT901BLE67,90856446-A74E-F462-0152-8475C1E77738,1.401,-1.034,0.793,0.000,0.000,0.000,-0.489,0.775,-72.724,30.8,-11.373,-71.6,100,27.57
2025-12-11 22:15:38.935,WT901BLE67,90856446-A74E-F462-0152-8475C1E77738,1.401,-1.034,0.793,0.000,0.000,0.000,-0.489,0.775,-72.724,30.8,-11.373,-71.6,100,27.57
2025-12-11 22:15:38.940,WT901BLE67,90856446-A74E-F462-0152-8475C1E77738,1.401,-1.034,0.793,0.000,0.000,0.000,-0.489,0.775,-72.724,30.8,-11.373,-71.6,100,27.57
2025-12-11 22:15:38.945,WT901BLE67,90856446-A74E-F462-0152-8475C1E77738,1.401,-1.034,0.793,0.000,0.000,0.000,-0.489,0.775,-72.724,30.8,-11.373,-71.6,100,27.57
2025-12-11 22:15:38.950,WT901BLE67,90856446-A74E-F462-0152-8475C1E77738,1.401,-1.034,0.793,0.000,0.000,0.000,-0.489,0.775,-72.724,30.8,-11.373,-71.6,100,27.57
2025-12-11 22:15:38.955,WT901BLE67,90856446-A74E-F462-0152-8475C1E77738,1.401,-1.034,0.793,0.000,0.000,0.000,-0.489,0.775,-72.724,30.8,-11.373,-71.6,100,27.57
2025-12-11 22:15:38.958,WT901BLE67,90856446-A74E-F462-0152-8475C1E77738,1.401,-1.034,0.795,0.000,0.000,0.000,-0.489,0.775,-72.724,30.8,-11.373,-71.6,100,27.57
2025-12-11 22:15:38.958,WT901BLE67,90856446-A74E-F462-0152-8475C1E77738,1.399,-1.034,0.796,0.000,0.000,0.000,-0.489,0.775,-72.724,30.8,-11.373,-71.6,100,27.57
2025-12-11 22:15:38.962,WT901BLE67,90856446-A74E-F462-0152-8475C1E77738,1.399,-1.034,0.796,0.000,0.000,0.000,-0.489,0.775,-72.724,30.8,-11.373,-71.6,100,27.57
2025-12-11 22:15:38.965,WT901BLE67,90856446-A74E-F462-0152-8475C1E77738,1.399,-1.034,0.796,0.000,0.000,0.000,-0.489,0.775,-72.724,30.8,-11.373,-71.6,100,27.57
2025-12-11 22:15:38.970,WT901BLE67,90856446-A74E-F462-0152-8475C1E77738,1.399,-1.034,0.796,0.000,0.000,0.000,-0.489,0.775,-72.724,30.8,-11.373,-71.6,100,27.57
2025-12-11 22:15:38.975,WT901BLE67,90856446-A74E-F462-0152-8475C1E77738,1.399,-1.034,0.796,0.000,0.000,0.000,-0.489,0.775,-72.724,30.8,-11.373,-71.6,100,27.57
2025-12-11 22:15:38.980,WT901BLE67,90856446-A74E-F462-0152-8475C1E77738,1.399,-1.034,0.796,0.000,0.000,0.000,-0.489,0.775,-72.724,30.8,-11.373,-71.6,100,27.57
2025-12-11 22:15:38.985,WT901BLE67,90856446-A74E-F462-0152-8475C1E77738,1.399,-1.034,0.796,0.000,0.000,0.000,-0.489,0.775,-72.724,30.8,-11.373,-71.6,100,27.57
2025-12-11 22:15:38.987,WT901BLE67,90856446-A74E-F462-0152-8475C1E77738,1.400,-1.033,0.797,0.000,0.000,0.000,-0.489,0.775,-72.724,30.8,-11.373,-71.6,100,27.57
2025-12-11 22:15:38.987,WT901BLE67,90856446-A74E-F462-0152-8475C1E77738,1.401,-1.033,0.798,0.000,0.000,0.000,-0.489,0.775,-72.724,30.8,-11.373,-71.6,100,27.57
2025-12-11 22:15:38.990,WT901BLE67,90856446-A74E-F462-0152-8475C1E77738,1.401,-1.033,0.798,0.000,0.000,0.000,-0.489,0.775,-72.724,30.8,-11.373,-71.6,100,27.57
2025-12-11 22:15:38.995,WT901BLE67,90856446-A74E-F462-0152-8475C1E77738,1.401,-1.033,0.798,0.000,0.000,0.000,-0.489,0.775,-72.724,30.8,-11.373,-71.6,100,27.57
2025-12-11 22:15:39.000,WT901BLE67,90856446-A74E-F462-0152-8475C1E77738,1.401,-1.033,0.798,0.000,0.000,0.000,-0.489,0.775,-72.724,30.8,-11.373,-71.6,100,27.57
2025-12-11 22:15:39.005,WT901BLE67,90856446-A74E-F462-0152-8475C1E77738,1.401,-1.033,0.798,0.000,0.000,0.000,-0.489,0.775,-72.724,30.8,-11.373,-71.6,100,27.57
2025-12-11 22:15:39.012,WT901BLE67,90856446-A74E-F462-0152-8475C1E77738,1.401,-1.033,0.798,0.000,0.000,0.000,-0.489,0.775,-72.724,30.8,-11.373,-71.6,100,27.57
2025-12-11 22:15:39.015,WT901BLE67,90856446-A74E-F462-0152-8475C1E77738,1.401,-1.033,0.798,0.000,0.000,0.000,-0.489,0.775,-72.724,30.8,-11.373,-71.6,100,27.57
2025-12-11 22:15:39.018,WT901BLE67,90856446-A74E-F462-0152-8475C1E77738,1.401,-1.033,0.797,0.000,0.000,0.000,-0.489,0.775,-72.724,30.8,-11.373,-71.6,100,27.57
2025-12-11 22:15:39.018,WT901BLE67,90856446-A74E-F462-0152-8475C1E77738,1.400,-1.032,0.795,0.000,0.000,0.000,-0.489,0.780,-72.724,30.8,-11.373,-71.6,100,27.57
2025-12-11 22:15:39.020,WT901BLE67,90856446-A74E-F462-0152-8475C1E77738,1.400,-1.032,0.795,0.000,0.000,0.000,-0.489,0.780,-72.724,30.8,-11.373,-71.6,100,27.57
2025-12-11 22:15:39.025,WT901BLE67,90856446-A74E-F462-0152-8475C1E77738,1.400,-1.032,0.795,0.000,0.000,0.000,-0.489,0.780,-72.724,30.8,-11.373,-71.6,100,27.57
2025-12-11 22:15:39.030,WT901BLE67,90856446-A74E-F462-0152-8475C1E77738,1.400,-1.032,0.795,0.000,0.000,0.000,-0.489,0.780,-72.724,30.8,-11.373,-71.6,100,27.57
2025-12-11 22:15:39.035,WT901BLE67,90856446-A74E-F462-0152-8475C1E77738,1.400,-1.032,0.795,0.000,0.000,0.000,-0.489,0.780,-72.724,30.8,-11.373,-71.6,100,27.57
2025-12-11 22:15:39.040,WT901BLE67,90856446-A74E-F462-0152-8475C1E77738,1.400,-1.032,0.795,0.000,0.000,0.000,-0.489,0.780,-72.724,30.8,-11.373,-71.6,100,27.57
2025-12-11 22:15:39.045,WT901BLE67,90856446-A74E-F462-0152-8475C1E77738,1.400,-1.032,0.795,0.000,0.000,0.000,-0.489,0.780,-72.724,30.8,-11.373,-71.6,100,27.57
2025-12-11 22:15:39.050,WT901BLE67,90856446-A74E-F462-0152-8475C1E77738,1.400,-1.032,0.795,0.000,0.000,0.000,-0.489,0.780,-72.724,30.8,-11.373,-71.6,100,27.57
2025-12-11 22:15:39.055,WT901BLE67,90856446-A74E-F462-0152-8475C1E77738,1.400,-1.032,0.795,0.000,0.000,0.000,-0.489,0.780,-72.724,30.8,-11.373,-71.6,100,27.57
2025-12-11 22:15:39.061,WT901BLE67,90856446-A74E-F462-0152-8475C1E77738,1.400,-1.032,0.795,0.000,0.000,0.000,-0.489,0.780,-72.724,30.8,-11.373,-71.6,100,27.57
2025-12-11 22:15:39.065,WT901BLE67,90856446-A74E-F462-0152-8475C1E77738,1.400,-1.032,0.795,0.000,0.000,0.000,-0.489,0.780,-72.724,30.8,-11.373,-71.6,100,27.57
2025-12-11 22:15:39.070,WT901BLE67,90856446-A74E-F462-0152-8475C1E77738,1.400,-1.032,0.795,0.000,0.000,0.000,-0.489,0.780,-72.724,30.8,-11.373,-71.6,100,27.57
2025-12-11 22:15:39.075,WT901BLE67,90856446-A74E-F462-0152-8475C1E77738,1.400,-1.032,0.795,0.000,0.000,0.000,-0.489,0.780,-72.724,30.8,-11.373,-71.6,100,27.57
2025-12-11 22:15:39.079,WT901BLE67,90856446-A74E-F462-0152-8475C1E77738,1.400,-1.035,0.797,0.000,0.000,0.000,-0.489,0.780,-72.724,30.8,-11.373,-71.6,100,27.57
2025-12-11 22:15:39.079,WT901BLE67,90856446-A74E-F462-0152-8475C1E77738,1.399,-1.033,0.798,0.000,0.000,0.000,-0.489,0.780,-72.724,30.8,-11.373,-71.6,100,27.57
2025-12-11 22:15:39.080,WT901BLE67,90856446-A74E-F462-0152-8475C1E77738,1.399,-1.033,0.798,0.000,0.000,0.000,-0.489,0.780,-72.724,30.8,-11.373,-71.6,100,27.57
2025-12-11 22:15:39.085,WT901BLE67,90856446-A74E-F462-0152-8475C1E77738,1.399,-1.033,0.798,0.000,0.000,0.000,-0.489,0.780,-72.724,30.8,-11.373,-71.6,100,27.57
2025-12-11 22:15:39.090,WT901BLE67,90856446-A74E-F462-0152-8475C1E77738,1.399,-1.033,0.798,0.000,0.000,0.000,-0.489,0.780,-72.724,30.8,-11.373,-71.6,100,27.57
2025-12-11 22:15:39.095,WT901BLE67,90856446-A74E-F462-0152-8475C1E77738,1.399,-1.033,0.798,0.000,0.000,0.000,-0.489,0.780,-72.724,30.8,-11.373,-71.6,100,27.57
2025-12-11 22:15:39.100,WT901BLE67,90856446-A74E-F462-0152-8475C1E77738,1.399,-1.033,0.798,0.000,0.000,0.000,-0.489,0.780,-72.724,30.8,-11.373,-71.6,100,27.57
2025-12-11 22:15:39.105,WT901BLE67,90856446-A74E-F462-0152-8475C1E77738,1.399,-1.033,0.798,0.000,0.000,0.000,-0.489,0.780,-72.724,30.8,-11.373,-71.6,100,27.57
2025-12-11 22:15:39.107,WT901BLE67,90856446-A74E-F462-0152-8475C1E77738,1.399,-1.034,0.795,0.000,0.000,0.000,-0.489,0.780,-72.724,30.8,-11.373,-71.6,100,27.57
2025-12-11 22:15:39.107,WT901BLE67,90856446-A74E-F462-0152-8475C1E77738,1.398,-1.034,0.796,0.000,0.000,0.000,-0.489,0.780,-72.724,30.8,-11.373,-71.6,100,27.57
2025-12-11 22:15:39.111,WT901BLE67,90856446-A74E-F462-0152-8475C1E77738,1.398,-1.034,0.796,0.000,0.000,0.000,-0.489,0.780,-72.724,30.8,-11.373,-71.6,100,27.57
2025-12-11 22:15:39.115,WT901BLE67,90856446-A74E-F462-0152-8475C1E77738,1.398,-1.034,0.796,0.000,0.000,0.000,-0.489,0.780,-72.724,30.8,-11.373,-71.6,100,27.57
2025-12-11 22:15:39.120,WT901BLE67,90856446-A74E-F462-0152-8475C1E77738,1.398,-1.034,0.796,0.000,0.000,0.000,-0.489,0.780,-72.724,30.8,-11.373,-71.6,100,27.57
2025-12-11 22:15:39.125,WT901BLE67,90856446-A74E-F462-0152-8475C1E77738,1.398,-1.034,0.796,0.000,0.000,0.000,-0.489,0.780,-72.724,30.8,-11.373,-71.6,100,27.57
2025-12-11 22:15:39.130,WT901BLE67,90856446-A74E-F462-0152-8475C1E77738,1.398,-1.034,0.796,0.000,0.000,0.000,-0.489,0.780,-72.724,30.8,-11.373,-71.6,100,27.57
2025-12-11 22:15:39.135,WT901BLE67,90856446-A74E-F462-0152-8475C1E77738,1.398,-1.034,0.796,0.000,0.000,0.000,-0.489,0.780,-72.724,30.8,-11.373,-71.6,100,27.57
2025-12-11 22:15:39.140,WT901BLE67,90856446-A74E-F462-0152-8475C1E77738,1.399,-1.034,0.797,0.000,0.000,0.000,-0.489,0.780,-72.724,30.8,-11.373,-71.6,100,27.57
2025-12-11 22:15:39.140,WT901BLE67,90856446-A74E-F462-0152-8475C1E77738,1.399,-1.032,0.796,0.000,0.000,0.000,-0.483,0.780,-72.724,30.8,-11.373,-71.6,100,27.57
2025-12-11 22:15:39.140,WT901BLE67,90856446-A74E-F462-0152-8475C1E77738,1.399,-1.032,0.796,0.000,0.000,0.000,-0.483,0.780,-72.724,30.8,-11.373,-71.6,100,27.57
2025-12-11 22:15:39.145,WT901BLE67,90856446-A74E-F462-0152-8475C1E77738,1.399,-1.032,0.796,0.000,0.000,0.000,-0.483,0.780,-72.724,30.8,-11.373,-71.6,100,27.57
2025-12-11 22:15:39.150,WT901BLE67,90856446-A74E-F462-0152-8475C1E77738,1.399,-1.032,0.796,0.000,0.000,0.000,-0.483,0.780,-72.724,30.8,-11.373,-71.6,100,27.57
2025-12-11 22:15:39.155,WT901BLE67,90856446-A74E-F462-0152-8475C1E77738,1.399,-1.032,0.796,0.000,0.000,0.000,-0.483,0.780,-72.724,30.8,-11.373,-71.6,100,27.57
2025-12-11 22:15:39.161,WT901BLE67,90856446-A74E-F462-0152-8475C1E77738,1.399,-1.032,0.796,0.000,0.000,0.000,-0.483,0.780,-72.724,30.8,-11.373,-71.6,100,27.57
2025-12-11 22:15:39.165,WT901BLE67,90856446-A74E-F462-0152-8475C1E77738,1.399,-1.032,0.796,0.000,0.000,0.000,-0.483,0.780,-72.724,30.8,-11.373,-71.6,100,27.57
2025-12-11 22:15:39.170,WT901BLE67,90856446-A74E-F462-0152-8475C1E77738,1.399,-1.032,0.796,0.000,0.000,0.000,-0.483,0.780,-72.724,30.8,-11.373,-71.6,100,27.57
2025-12-11 22:15:39.175,WT901BLE67,90856446-A74E-F462-0152-8475C1E77738,1.399,-1.032,0.796,0.000,0.000,0.000,-0.483,0.780,-72.724,30.8,-11.373,-71.6,100,27.57
2025-12-11 22:15:39.180,WT901BLE67,90856446-A74E-F462-0152-8475C1E77738,1.399,-1.032,0.796,0.000,0.000,0.000,-0.483,0.780,-72.724,30.8,-11.373,-71.6,100,27.57
2025-12-11 22:15:39.185,WT901BLE67,90856446-A74E-F462-0152-8475C1E77738,1.399,-1.032,0.796,0.000,0.000,0.000,-0.483,0.780,-72.724,30.8,-11.373,-71.6,100,27.57
2025-12-11 22:15:39.190,WT901BLE67,90856446-A74E-F462-0152-8475C1E77738,1.399,-1.032,0.796,0.000,0.000,0.000,-0.483,0.780,-72.724,30.8,-11.373,-71.6,100,27.57
2025-12-11 22:15:39.195,WT901BLE67,90856446-A74E-F462-0152-8475C1E77738,1.399,-1.032,0.796,0.000,0.000,0.000,-0.483,0.780,-72.724,30.8,-11.373,-71.6,100,27.57
2025-12-11 22:15:39.198,WT901BLE67,90856446-A74E-F462-0152-8475C1E77738,1.402,-1.032,0.795,0.000,0.000,0.000,-0.489,0.780,-72.724,30.8,-11.373,-71.6,100,27.57
2025-12-11 22:15:39.198,WT901BLE67,90856446-A74E-F462-0152-8475C1E77738,1.401,-1.034,0.797,0.000,0.000,0.000,-0.483,0.780,-72.724,30.8,-11.373,-71.6,100,27.57
2025-12-11 22:15:39.200,WT901BLE67,90856446-A74E-F462-0152-8475C1E77738,1.401,-1.034,0.797,0.000,0.000,0.000,-0.483,0.780,-72.724,30.8,-11.373,-71.6,100,27.57
2025-12-11 22:15:39.205,WT901BLE67,90856446-A74E-F462-0152-8475C1E77738,1.401,-1.034,0.797,0.000,0.000,0.000,-0.483,0.780,-72.724,30.8,-11.373,-71.6,100,27.57
2025-12-11 22:15:39.211,WT901BLE67,90856446-A74E-F462-0152-8475C1E77738,1.401,-1.034,0.797,0.000,0.000,0.000,-0.483,0.780,-72.724,30.8,-11.373,-71.6,100,27.57
2025-12-11 22:15:39.215,WT901BLE67,90856446-A74E-F462-0152-8475C1E77738,1.401,-1.034,0.797,0.000,0.000,0.000,-0.483,0.780,-72.724,30.8,-11.373,-71.6,100,27.57
2025-12-11 22:15:39.221,WT901BLE67,90856446-A74E-F462-0152-8475C1E77738,1.401,-1.034,0.797,0.000,0.000,0.000,-0.483,0.780,-72.724,30.8,-11.373,-71.6,100,27.57
2025-12-11 22:15:39.225,WT901BLE67,90856446-A74E-F462-0152-8475C1E77738,1.401,-1.034,0.797,0.000,0.000,0.000,-0.483,0.780,-72.724,30.8,-11.373,-71.6,100,27.57
2025-12-11 22:15:39.229,WT901BLE67,90856446-A74E-F462-0152-8475C1E77738,1.400,-1.033,0.796,0.000,0.000,0.000,-0.483,0.780,-72.724,30.8,-11.373,-71.6,100,27.57
2025-12-11 22:15:39.229,WT901BLE67,90856446-A74E-F462-0152-8475C1E77738,1.400,-1.034,0.795,0.000,0.000,0.000,-0.483,0.780,-72.724,30.8,-11.373,-71.6,100,27.57
2025-12-11 22:15:39.230,WT901BLE67,90856446-A74E-F462-0152-8475C1E77738,1.400,-1.034,0.795,0.000,0.000,0.000,-0.483,0.780,-72.724,30.8,-11.373,-71.6,100,27.57
2025-12-11 22:15:39.235,WT901BLE67,90856446-A74E-F462-0152-8475C1E77738,1.400,-1.034,0.795,0.000,0.000,0.000,-0.483,0.780,-72.724,30.8,-11.373,-71.6,100,27.57
2025-12-11 22:15:39.240,WT901BLE67,90856446-A74E-F462-0152-8475C1E77738,1.400,-1.034,0.795,0.000,0.000,0.000,-0.483,0.780,-72.724,30.8,-11.373,-71.6,100,27.57
2025-12-11 22:15:39.245,WT901BLE67,90856446-A74E-F462-0152-8475C1E77738,1.400,-1.034,0.795,0.000,0.000,0.000,-0.483,0.780,-72.724,30.8,-11.373,-71.6,100,27.57
2025-12-11 22:15:39.250,WT901BLE67,90856446-A74E-F462-0152-8475C1E77738,1.400,-1.034,0.795,0.000,0.000,0.000,-0.483,0.780,-72.724,30.8,-11.373,-71.6,100,27.57
2025-12-11 22:15:39.255,WT901BLE67,90856446-A74E-F462-0152-8475C1E77738,1.400,-1.034,0.795,0.000,0.000,0.000,-0.483,0.780,-72.724,30.8,-11.373,-71.6,100,27.57
2025-12-11 22:15:39.258,WT901BLE67,90856446-A74E-F462-0152-8475C1E77738,1.400,-1.033,0.795,0.000,0.000,0.000,-0.483,0.780,-72.724,30.8,-11.373,-71.6,100,27.57
2025-12-11 22:15:39.258,WT901BLE67,90856446-A74E-F462-0152-8475C1E77738,1.400,-1.035,0.795,0.000,0.000,0.000,-0.483,0.780,-72.724,30.8,-11.373,-71.6,100,27.57
2025-12-11 22:15:39.261,WT901BLE67,90856446-A74E-F462-0152-8475C1E77738,1.400,-1.035,0.795,0.000,0.000,0.000,-0.483,0.780,-72.724,30.8,-11.373,-71.6,100,27.57
2025-12-11 22:15:39.265,WT901BLE67,90856446-A74E-F462-0152-8475C1E77738,1.400,-1.035,0.795,0.000,0.000,0.000,-0.483,0.780,-72.724,30.8,-11.373,-71.6,100,27.57
2025-12-11 22:15:39.270,WT901BLE67,90856446-A74E-F462-0152-8475C1E77738,1.400,-1.035,0.795,0.000,0.000,0.000,-0.483,0.780,-72.724,30.8,-11.373,-71.6,100,27.57
2025-12-11 22:15:39.275,WT901BLE67,90856446-A74E-F462-0152-8475C1E77738,1.400,-1.035,0.795,0.000,0.000,0.000,-0.483,0.780,-72.724,30.8,-11.373,-71.6,100,27.57
2025-12-11 22:15:39.280,WT901BLE67,90856446-A74E-F462-0152-8475C1E77738,1.400,-1.035,0.795,0.000,0.000,0.000,-0.483,0.780,-72.724,30.8,-11.373,-71.6,100,27.57
2025-12-11 22:15:39.285,WT901BLE67,90856446-A74E-F462-0152-8475C1E77738,1.400,-1.035,0.795,0.000,0.000,0.000,-0.483,0.780,-72.724,30.8,-11.373,-71.6,100,27.57
2025-12-11 22:15:39.290,WT901BLE67,90856446-A74E-F462-0152-8475C1E77738,1.400,-1.035,0.795,0.000,0.000,0.000,-0.483,0.780,-72.724,30.8,-11.373,-71.6,100,27.57
2025-12-11 22:15:39.295,WT901BLE67,90856446-A74E-F462-0152-8475C1E77738,1.400,-1.035,0.795,0.000,0.000,0.000,-0.483,0.780,-72.724,30.8,-11.373,-71.6,100,27.57
2025-12-11 22:15:39.300,WT901BLE67,90856446-A74E-F462-0152-8475C1E77738,1.400,-1.035,0.795,0.000,0.000,0.000,-0.483,0.780,-72.724,30.8,-11.373,-71.6,100,27.57
2025-12-11 22:15:39.305,WT901BLE67,90856446-A74E-F462-0152-8475C1E77738,1.400,-1.035,0.795,0.000,0.000,0.000,-0.483,0.780,-72.724,30.8,-11.373,-71.6,100,27.57
2025-12-11 22:15:39.311,WT901BLE67,90856446-A74E-F462-0152-8475C1E77738,1.400,-1.035,0.795,0.000,0.000,0.000,-0.483,0.780,-72.724,30.8,-11.373,-71.6,100,27.57
2025-12-11 22:15:39.315,WT901BLE67,90856446-A74E-F462-0152-8475C1E77738,1.400,-1.035,0.795,0.000,0.000,0.000,-0.483,0.780,-72.724,30.8,-11.373,-71.6,100,27.57
2025-12-11 22:15:39.318,WT901BLE67,90856446-A74E-F462-0152-8475C1E77738,1.401,-1.034,0.795,0.000,0.000,0.000,-0.483,0.780,-72.724,30.8,-11.373,-71.6,100,27.57
2025-12-11 22:15:39.318,WT901BLE67,90856446-A74E-F462-0152-8475C1E77738,1.401,-1.033,0.797,0.000,0.000,0.000,-0.483,0.780,-72.724,30.8,-11.373,-71.6,100,27.57
2025-12-11 22:15:39.320,WT901BLE67,90856446-A74E-F462-0152-8475C1E77738,1.401,-1.033,0.797,0.000,0.000,0.000,-0.483,0.780,-72.724,30.8,-11.373,-71.6,100,27.57
2025-12-11 22:15:39.325,WT901BLE67,90856446-A74E-F462-0152-8475C1E77738,1.401,-1.033,0.797,0.000,0.000,0.000,-0.483,0.780,-72.724,30.8,-11.373,-71.6,100,27.57
2025-12-11 22:15:39.330,WT901BLE67,90856446-A74E-F462-0152-8475C1E77738,1.401,-1.033,0.797,0.000,0.000,0.000,-0.483,0.780,-72.724,30.8,-11.373,-71.6,100,27.57
2025-12-11 22:15:39.335,WT901BLE67,90856446-A74E-F462-0152-8475C1E77738,1.401,-1.033,0.797,0.000,0.000,0.000,-0.483,0.780,-72.724,30.8,-11.373,-71.6,100,27.57
2025-12-11 22:15:39.340,WT901BLE67,90856446-A74E-F462-0152-8475C1E77738,1.401,-1.033,0.797,0.000,0.000,0.000,-0.483,0.780,-72.724,30.8,-11.373,-71.6,100,27.57
2025-12-11 22:15:39.345,WT901BLE67,90856446-A74E-F462-0152-8475C1E77738,1.401,-1.033,0.797,0.000,0.000,0.000,-0.483,0.780,-72.724,30.8,-11.373,-71.6,100,27.57
2025-12-11 22:15:39.350,WT901BLE67,90856446-A74E-F462-0152-8475C1E77738,1.402,-1.034,0.795,0.000,0.000,0.000,-0.483,0.780,-72.724,30.8,-11.373,-71.6,100,27.57
2025-12-11 22:15:39.350,WT901BLE67,90856446-A74E-F462-0152-8475C1E77738,1.400,-1.034,0.796,0.000,0.000,0.000,-0.483,0.780,-72.724,30.8,-11.373,-71.6,100,27.57
2025-12-11 22:15:39.350,WT901BLE67,90856446-A74E-F462-0152-8475C1E77738,1.400,-1.034,0.796,0.000,0.000,0.000,-0.483,0.780,-72.724,30.8,-11.373,-71.6,100,27.57
2025-12-11 22:15:39.355,WT901BLE67,90856446-A74E-F462-0152-8475C1E77738,1.400,-1.034,0.796,0.000,0.000,0.000,-0.483,0.780,-72.724,30.8,-11.373,-71.6,100,27.57
2025-12-11 22:15:39.361,WT901BLE67,90856446-A74E-F462-0152-8475C1E77738,1.400,-1.034,0.796,0.000,0.000,0.000,-0.483,0.780,-72.724,30.8,-11.373,-71.6,100,27.57
2025-12-11 22:15:39.365,WT901BLE67,90856446-A74E-F462-0152-8475C1E77738,1.400,-1.034,0.796,0.000,0.000,0.000,-0.483,0.780,-72.724,30.8,-11.373,-71.6,100,27.57
2025-12-11 22:15:39.370,WT901BLE67,90856446-A74E-F462-0152-8475C1E77738,1.400,-1.034,0.796,0.000,0.000,0.000,-0.483,0.780,-72.724,30.8,-11.373,-71.6,100,27.57
2025-12-11 22:15:39.375,WT901BLE67,90856446-A74E-F462-0152-8475C1E77738,1.400,-1.034,0.796,0.000,0.000,0.000,-0.483,0.780,-72.724,30.8,-11.373,-71.6,100,27.57
2025-12-11 22:15:39.380,WT901BLE67,90856446-A74E-F462-0152-8475C1E77738,1.400,-1.034,0.796,0.000,0.000,0.000,-0.483,0.780,-72.724,30.8,-11.373,-71.6,100,27.57
2025-12-11 22:15:39.385,WT901BLE67,90856446-A74E-F462-0152-8475C1E77738,1.400,-1.034,0.796,0.000,0.000,0.000,-0.483,0.780,-72.724,30.8,-11.373,-71.6,100,27.57
2025-12-11 22:15:39.390,WT901BLE67,90856446-A74E-F462-0152-8475C1E77738,1.400,-1.034,0.796,0.000,0.000,0.000,-0.483,0.780,-72.724,30.8,-11.373,-71.6,100,27.57
2025-12-11 22:15:39.395,WT901BLE67,90856446-A74E-F462-0152-8475C1E77738,1.400,-1.034,0.796,0.000,0.000,0.000,-0.483,0.780,-72.724,30.8,-11.373,-71.6,100,27.57
2025-12-11 22:15:39.400,WT901BLE67,90856446-A74E-F462-0152-8475C1E77738,1.400,-1.034,0.796,0.000,0.000,0.000,-0.483,0.780,-72.724,30.8,-11.373,-71.6,100,27.57
2025-12-11 22:15:39.405,WT901BLE67,90856446-A74E-F462-0152-8475C1E77738,1.400,-1.034,0.796,0.000,0.000,0.000,-0.483,0.780,-72.724,30.8,-11.373,-71.6,100,27.57
2025-12-11 22:15:39.408,WT901BLE67,90856446-A74E-F462-0152-8475C1E77738,1.401,-1.032,0.795,0.000,0.000,0.000,-0.483,0.780,-72.724,30.8,-11.373,-71.6,100,27.57
2025-12-11 22:15:39.408,WT901BLE67,90856446-A74E-F462-0152-8475C1E77738,1.401,-1.034,0.796,0.000,0.000,0.000,-0.483,0.780,-72.724,30.8,-11.373,-71.6,100,27.57
2025-12-11 22:15:39.411,WT901BLE67,90856446-A74E-F462-0152-8475C1E77738,1.401,-1.034,0.796,0.000,0.000,0.000,-0.483,0.780,-72.724,30.8,-11.373,-71.6,100,27.57
2025-12-11 22:15:39.415,WT901BLE67,90856446-A74E-F462-0152-8475C1E77738,1.401,-1.034,0.796,0.000,0.000,0.000,-0.483,0.780,-72.724,30.8,-11.373,-71.6,100,27.57
2025-12-11 22:15:39.420,WT901BLE67,90856446-A74E-F462-0152-8475C1E77738,1.401,-1.034,0.796,0.000,0.000,0.000,-0.483,0.780,-72.724,30.8,-11.373,-71.6,100,27.57
2025-12-11 22:15:39.425,WT901BLE67,90856446-A74E-F462-0152-8475C1E77738,1.401,-1.034,0.796,0.000,0.000,0.000,-0.483,0.780,-72.724,30.8,-11.373,-71.6,100,27.57
2025-12-11 22:15:39.430,WT901BLE67,90856446-A74E-F462-0152-8475C1E77738,1.401,-1.034,0.796,0.000,0.000,0.000,-0.483,0.780,-72.724,30.8,-11.373,-71.6,100,27.57
2025-12-11 22:15:39.435,WT901BLE67,90856446-A74E-F462-0152-8475C1E77738,1.401,-1.034,0.796,0.000,0.000,0.000,-0.483,0.780,-72.724,30.8,-11.373,-71.6,100,27.57
2025-12-11 22:15:39.437,WT901BLE67,90856446-A74E-F462-0152-8475C1E77738,1.401,-1.033,0.796,0.000,0.000,0.000,-0.483,0.780,-72.724,30.8,-11.373,-71.6,100,27.57
2025-12-11 22:15:39.437,WT901BLE67,90856446-A74E-F462-0152-8475C1E77738,1.398,-1.033,0.797,0.000,0.000,0.000,-0.483,0.780,-72.724,30.8,-11.373,-71.6,100,27.57
2025-12-11 22:15:39.440,WT901BLE67,90856446-A74E-F462-0152-8475C1E77738,1.398,-1.033,0.797,0.000,0.000,0.000,-0.483,0.780,-72.724,30.8,-11.373,-71.6,100,27.57
2025-12-11 22:15:39.445,WT901BLE67,90856446-A74E-F462-0152-8475C1E77738,1.398,-1.033,0.797,0.000,0.000,0.000,-0.483,0.780,-72.724,30.8,-11.373,-71.6,100,27.57
2025-12-11 22:15:39.450,WT901BLE67,90856446-A74E-F462-0152-8475C1E77738,1.398,-1.033,0.797,0.000,0.000,0.000,-0.483,0.780,-72.724,30.8,-11.373,-71.6,100,27.57
2025-12-11 22:15:39.455,WT901BLE67,90856446-A74E-F462-0152-8475C1E77738,1.398,-1.033,0.797,0.000,0.000,0.000,-0.483,0.780,-72.724,30.8,-11.373,-71.6,100,27.57
2025-12-11 22:15:39.461,WT901BLE67,90856446-A74E-F462-0152-8475C1E77738,1.398,-1.033,0.797,0.000,0.000,0.000,-0.483,0.780,-72.724,30.8,-11.373,-71.6,100,27.57
2025-12-11 22:15:39.465,WT901BLE67,90856446-A74E-F462-0152-8475C1E77738,1.398,-1.033,0.797,0.000,0.000,0.000,-0.483,0.780,-72.724,30.8,-11.373,-71.6,100,27.57
2025-12-11 22:15:39.470,WT901BLE67,90856446-A74E-F462-0152-8475C1E77738,1.398,-1.033,0.797,0.000,0.000,0.000,-0.483,0.780,-72.724,30.8,-11.373,-71.6,100,27.57
2025-12-11 22:15:39.470,WT901BLE67,90856446-A74E-F462-0152-8475C1E77738,1.400,-1.034,0.796,0.000,0.000,0.000,-0.483,0.780,-72.724,30.8,-11.373,-71.6,100,27.57
2025-12-11 22:15:39.470,WT901BLE67,90856446-A74E-F462-0152-8475C1E77738,1.401,-1.034,0.793,0.000,0.000,0.000,-0.483,0.780,-72.724,30.8,-11.373,-71.6,100,27.57
2025-12-11 22:15:39.475,WT901BLE67,90856446-A74E-F462-0152-8475C1E77738,1.401,-1.034,0.793,0.000,0.000,0.000,-0.483,0.780,-72.724,30.8,-11.373,-71.6,100,27.57
2025-12-11 22:15:39.480,WT901BLE67,90856446-A74E-F462-0152-8475C1E77738,1.401,-1.034,0.793,0.000,0.000,0.000,-0.483,0.780,-72.724,30.8,-11.373,-71.6,100,27.57
2025-12-11 22:15:39.485,WT901BLE67,90856446-A74E-F462-0152-8475C1E77738,1.401,-1.034,0.793,0.000,0.000,0.000,-0.483,0.780,-72.724,30.8,-11.373,-71.6,100,27.57
2025-12-11 22:15:39.490,WT901BLE67,90856446-A74E-F462-0152-8475C1E77738,1.401,-1.034,0.793,0.000,0.000,0.000,-0.483,0.780,-72.724,30.8,-11.373,-71.6,100,27.57
2025-12-11 22:15:39.495,WT901BLE67,90856446-A74E-F462-0152-8475C1E77738,1.401,-1.034,0.793,0.000,0.000,0.000,-0.483,0.780,-72.724,30.8,-11.373,-71.6,100,27.57
2025-12-11 22:15:39.500,WT901BLE67,90856446-A74E-F462-0152-8475C1E77738,1.401,-1.034,0.793,0.000,0.000,0.000,-0.483,0.780,-72.724,30.8,-11.373,-71.6,100,27.57
2025-12-11 22:15:39.505,WT901BLE67,90856446-A74E-F462-0152-8475C1E77738,1.401,-1.034,0.793,0.000,0.000,0.000,-0.483,0.780,-72.724,30.8,-11.373,-71.6,100,27.57
2025-12-11 22:15:39.511,WT901BLE67,90856446-A74E-F462-0152-8475C1E77738,1.401,-1.034,0.793,0.000,0.000,0.000,-0.483,0.780,-72.724,30.8,-11.373,-71.6,100,27.57
2025-12-11 22:15:39.515,WT901BLE67,90856446-A74E-F462-0152-8475C1E77738,1.401,-1.034,0.793,0.000,0.000,0.000,-0.483,0.780,-72.724,30.8,-11.373,-71.6,100,27.57
2025-12-11 22:15:39.520,WT901BLE67,90856446-A74E-F462-0152-8475C1E77738,1.401,-1.034,0.793,0.000,0.000,0.000,-0.483,0.780,-72.724,30.8,-11.373,-71.6,100,27.57
2025-12-11 22:15:39.525,WT901BLE67,90856446-A74E-F462-0152-8475C1E77738,1.401,-1.034,0.793,0.000,0.000,0.000,-0.483,0.780,-72.724,30.8,-11.373,-71.6,100,27.57
2025-12-11 22:15:39.529,WT901BLE67,90856446-A74E-F462-0152-8475C1E77738,1.399,-1.033,0.795,0.000,0.000,0.000,-0.483,0.780,-72.724,30.8,-11.373,-71.6,100,27.57
2025-12-11 22:15:39.529,WT901BLE67,90856446-A74E-F462-0152-8475C1E77738,1.402,-1.033,0.795,0.000,0.000,0.000,-0.483,0.780,-72.724,30.8,-11.373,-71.6,100,27.57
2025-12-11 22:15:39.530,WT901BLE67,90856446-A74E-F462-0152-8475C1E77738,1.402,-1.033,0.795,0.000,0.000,0.000,-0.483,0.780,-72.724,30.8,-11.373,-71.6,100,27.57
2025-12-11 22:15:39.535,WT901BLE67,90856446-A74E-F462-0152-8475C1E77738,1.402,-1.033,0.795,0.000,0.000,0.000,-0.483,0.780,-72.724,30.8,-11.373,-71.6,100,27.57
2025-12-11 22:15:39.540,WT901BLE67,90856446-A74E-F462-0152-8475C1E77738,1.402,-1.033,0.795,0.000,0.000,0.000,-0.483,0.780,-72.724,30.8,-11.373,-71.6,100,27.57
2025-12-11 22:15:39.545,WT901BLE67,90856446-A74E-F462-0152-8475C1E77738,1.402,-1.033,0.795,0.000,0.000,0.000,-0.483,0.780,-72.724,30.8,-11.373,-71.6,100,27.57
2025-12-11 22:15:39.550,WT901BLE67,90856446-A74E-F462-0152-8475C1E77738,1.402,-1.033,0.795,0.000,0.000,0.000,-0.483,0.780,-72.724,30.8,-11.373,-71.6,100,27.57
2025-12-11 22:15:39.555,WT901BLE67,90856446-A74E-F462-0152-8475C1E77738,1.402,-1.033,0.795,0.000,0.000,0.000,-0.483,0.780,-72.724,30.8,-11.373,-71.6,100,27.57
2025-12-11 22:15:39.558,WT901BLE67,90856446-A74E-F462-0152-8475C1E77738,1.400,-1.035,0.794,0.000,0.000,0.000,-0.483,0.780,-72.724,30.8,-11.373,-71.6,100,27.57
2025-12-11 22:15:39.558,WT901BLE67,90856446-A74E-F462-0152-8475C1E77738,1.402,-1.033,0.796,0.000,0.000,0.000,-0.483,0.780,-72.724,30.8,-11.373,-71.6,100,27.57
2025-12-11 22:15:39.561,WT901BLE67,90856446-A74E-F462-0152-8475C1E77738,1.402,-1.033,0.796,0.000,0.000,0.000,-0.483,0.780,-72.724,30.8,-11.373,-71.6,100,27.57
2025-12-11 22:15:39.565,WT901BLE67,90856446-A74E-F462-0152-8475C1E77738,1.402,-1.033,0.796,0.000,0.000,0.000,-0.483,0.780,-72.724,30.8,-11.373,-71.6,100,27.57
2025-12-11 22:15:39.570,WT901BLE67,90856446-A74E-F462-0152-8475C1E77738,1.402,-1.033,0.796,0.000,0.000,0.000,-0.483,0.780,-72.724,30.8,-11.373,-71.6,100,27.57
2025-12-11 22:15:39.575,WT901BLE67,90856446-A74E-F462-0152-8475C1E77738,1.402,-1.033,0.796,0.000,0.000,0.000,-0.483,0.780,-72.724,30.8,-11.373,-71.6,100,27.57
2025-12-11 22:15:39.580,WT901BLE67,90856446-A74E-F462-0152-8475C1E77738,1.402,-1.033,0.796,0.000,0.000,0.000,-0.483,0.780,-72.724,30.8,-11.373,-71.6,100,27.57
2025-12-11 22:15:39.585,WT901BLE67,90856446-A74E-F462-0152-8475C1E77738,1.402,-1.033,0.796,0.000,0.000,0.000,-0.483,0.780,-72.724,30.8,-11.373,-71.6,100,27.57
2025-12-11 22:15:39.588,WT901BLE67,90856446-A74E-F462-0152-8475C1E77738,1.401,-1.032,0.796,0.000,0.000,0.000,-0.483,0.780,-72.724,30.8,-11.373,-71.6,100,27.57
2025-12-11 22:15:39.588,WT901BLE67,90856446-A74E-F462-0152-8475C1E77738,1.401,-1.033,0.794,0.000,0.000,0.000,-0.483,0.780,-72.724,30.8,-11.373,-71.6,100,27.57
2025-12-11 22:15:39.590,WT901BLE67,90856446-A74E-F462-0152-8475C1E77738,1.401,-1.033,0.794,0.000,0.000,0.000,-0.483,0.780,-72.724,30.8,-11.373,-71.6,100,27.57
2025-12-11 22:15:39.595,WT901BLE67,90856446-A74E-F462-0152-8475C1E77738,1.401,-1.033,0.794,0.000,0.000,0.000,-0.483,0.780,-72.724,30.8,-11.373,-71.6,100,27.57
2025-12-11 22:15:39.600,WT901BLE67,90856446-A74E-F462-0152-8475C1E77738,1.401,-1.033,0.794,0.000,0.000,0.000,-0.483,0.780,-72.724,30.8,-11.373,-71.6,100,27.57
2025-12-11 22:15:39.605,WT901BLE67,90856446-A74E-F462-0152-8475C1E77738,1.401,-1.033,0.794,0.000,0.000,0.000,-0.483,0.780,-72.724,30.8,-11.373,-71.6,100,27.57
2025-12-11 22:15:39.611,WT901BLE67,90856446-A74E-F462-0152-8475C1E77738,1.401,-1.033,0.794,0.000,0.000,0.000,-0.483,0.780,-72.724,30.8,-11.373,-71.6,100,27.57
2025-12-11 22:15:39.615,WT901BLE67,90856446-A74E-F462-0152-8475C1E77738,1.401,-1.033,0.794,0.000,0.000,0.000,-0.483,0.780,-72.724,30.8,-11.373,-71.6,100,27.57
2025-12-11 22:15:39.620,WT901BLE67,90856446-A74E-F462-0152-8475C1E77738,1.401,-1.033,0.794,0.000,0.000,0.000,-0.483,0.780,-72.724,30.8,-11.373,-71.6,100,27.57
2025-12-11 22:15:39.625,WT901BLE67,90856446-A74E-F462-0152-8475C1E77738,1.401,-1.033,0.794,0.000,0.000,0.000,-0.483,0.780,-72.724,30.8,-11.373,-71.6,100,27.57
2025-12-11 22:15:39.630,WT901BLE67,90856446-A74E-F462-0152-8475C1E77738,1.401,-1.033,0.794,0.000,0.000,0.000,-0.483,0.780,-72.724,30.8,-11.373,-71.6,100,27.57
2025-12-11 22:15:39.635,WT901BLE67,90856446-A74E-F462-0152-8475C1E77738,1.401,-1.033,0.794,0.000,0.000,0.000,-0.483,0.780,-72.724,30.8,-11.373,-71.6,100,27.57
2025-12-11 22:15:39.640,WT901BLE67,90856446-A74E-F462-0152-8475C1E77738,1.401,-1.033,0.794,0.000,0.000,0.000,-0.483,0.780,-72.724,30.8,-11.373,-71.6,100,27.57
2025-12-11 22:15:39.645,WT901BLE67,90856446-A74E-F462-0152-8475C1E77738,1.401,-1.033,0.794,0.000,0.000,0.000,-0.483,0.780,-72.724,30.8,-11.373,-71.6,100,27.57
2025-12-11 22:15:39.650,WT901BLE67,90856446-A74E-F462-0152-8475C1E77738,1.400,-1.034,0.795,0.000,0.000,0.000,-0.483,0.780,-72.724,30.8,-11.373,-71.6,100,27.57
2025-12-11 22:15:39.650,WT901BLE67,90856446-A74E-F462-0152-8475C1E77738,1.401,-1.033,0.796,0.000,0.000,0.000,-0.483,0.780,-72.724,30.8,-11.373,-71.6,100,27.57
2025-12-11 22:15:39.650,WT901BLE67,90856446-A74E-F462-0152-8475C1E77738,1.401,-1.033,0.796,0.000,0.000,0.000,-0.483,0.780,-72.724,30.8,-11.373,-71.6,100,27.57
2025-12-11 22:15:39.655,WT901BLE67,90856446-A74E-F462-0152-8475C1E77738,1.401,-1.033,0.796,0.000,0.000,0.000,-0.483,0.780,-72.724,30.8,-11.373,-71.6,100,27.57
2025-12-11 22:15:39.661,WT901BLE67,90856446-A74E-F462-0152-8475C1E77738,1.401,-1.033,0.796,0.000,0.000,0.000,-0.483,0.780,-72.724,30.8,-11.373,-71.6,100,27.57
2025-12-11 22:15:39.665,WT901BLE67,90856446-A74E-F462-0152-8475C1E77738,1.401,-1.033,0.796,0.000,0.000,0.000,-0.483,0.780,-72.724,30.8,-11.373,-71.6,100,27.57
2025-12-11 22:15:39.670,WT901BLE67,90856446-A74E-F462-0152-8475C1E77738,1.401,-1.033,0.796,0.000,0.000,0.000,-0.483,0.780,-72.724,30.8,-11.373,-71.6,100,27.57
2025-12-11 22:15:39.675,WT901BLE67,90856446-A74E-F462-0152-8475C1E77738,1.401,-1.033,0.796,0.000,0.000,0.000,-0.483,0.780,-72.724,30.8,-11.373,-71.6,100,27.57
2025-12-11 22:15:39.680,WT901BLE67,90856446-A74E-F462-0152-8475C1E77738,1.401,-1.033,0.796,0.000,0.000,0.000,-0.483,0.780,-72.724,30.8,-11.373,-71.6,100,27.57
2025-12-11 22:15:39.680,WT901BLE67,90856446-A74E-F462-0152-8475C1E77738,1.401,-1.033,0.795,0.000,0.000,0.000,-0.483,0.780,-72.724,30.8,-11.373,-71.6,100,27.57
2025-12-11 22:15:39.685,WT901BLE67,90856446-A74E-F462-0152-8475C1E77738,1.401,-1.033,0.795,0.000,0.000,0.000,-0.483,0.780,-72.724,30.8,-11.373,-71.6,100,27.57
2025-12-11 22:15:39.690,WT901BLE67,90856446-A74E-F462-0152-8475C1E77738,1.401,-1.033,0.795,0.000,0.000,0.000,-0.483,0.780,-72.724,30.8,-11.373,-71.6,100,27.57
2025-12-11 22:15:39.695,WT901BLE67,90856446-A74E-F462-0152-8475C1E77738,1.401,-1.033,0.795,0.000,0.000,0.000,-0.483,0.780,-72.724,30.8,-11.373,-71.6,100,27.57
2025-12-11 22:15:39.700,WT901BLE67,90856446-A74E-F462-0152-8475C1E77738,1.401,-1.033,0.795,0.000,0.000,0.000,-0.483,0.780,-72.724,30.8,-11.373,-71.6,100,27.57
2025-12-11 22:15:39.705,WT901BLE67,90856446-A74E-F462-0152-8475C1E77738,1.401,-1.033,0.795,0.000,0.000,0.000,-0.483,0.780,-72.724,30.8,-11.373,-71.6,100,27.57
2025-12-11 22:15:39.710,WT901BLE67,90856446-A74E-F462-0152-8475C1E77738,1.400,-1.034,0.796,0.000,0.000,0.000,-0.483,0.780,-72.724,30.58,-11.5,-71.533,100,27.57
2025-12-11 22:15:39.710,WT901BLE67,90856446-A74E-F462-0152-8475C1E77738,1.402,-1.033,0.795,0.000,0.000,0.000,-0.483,0.780,-72.724,30.58,-11.5,-71.533,100,27.57
2025-12-11 22:15:39.711,WT901BLE67,90856446-A74E-F462-0152-8475C1E77738,1.402,-1.033,0.795,0.000,0.000,0.000,-0.483,0.780,-72.724,30.58,-11.5,-71.533,100,27.57
2025-12-11 22:15:39.715,WT901BLE67,90856446-A74E-F462-0152-8475C1E77738,1.402,-1.033,0.795,0.000,0.000,0.000,-0.483,0.780,-72.724,30.58,-11.5,-71.533,100,27.57
2025-12-11 22:15:39.720,WT901BLE67,90856446-A74E-F462-0152-8475C1E77738,1.402,-1.033,0.795,0.000,0.000,0.000,-0.483,0.780,-72.724,30.58,-11.5,-71.533,100,27.57
2025-12-11 22:15:39.725,WT901BLE67,90856446-A74E-F462-0152-8475C1E77738,1.402,-1.033,0.795,0.000,0.000,0.000,-0.483,0.780,-72.724,30.58,-11.5,-71.533,100,27.57
2025-12-11 22:15:39.730,WT901BLE67,90856446-A74E-F462-0152-8475C1E77738,1.402,-1.033,0.795,0.000,0.000,0.000,-0.483,0.780,-72.724,30.58,-11.5,-71.533,100,27.57
2025-12-11 22:15:39.735,WT901BLE67,90856446-A74E-F462-0152-8475C1E77738,1.402,-1.033,0.795,0.000,0.000,0.000,-0.483,0.780,-72.724,30.58,-11.5,-71.533,100,27.57
2025-12-11 22:15:39.740,WT901BLE67,90856446-A74E-F462-0152-8475C1E77738,1.402,-1.033,0.795,0.000,0.000,0.000,-0.483,0.780,-72.724,30.58,-11.5,-71.533,100,27.57
2025-12-11 22:15:39.745,WT901BLE67,90856446-A74E-F462-0152-8475C1E77738,1.402,-1.033,0.795,0.000,0.000,0.000,-0.483,0.780,-72.724,30.58,-11.5,-71.533,100,27.57
2025-12-11 22:15:39.750,WT901BLE67,90856446-A74E-F462-0152-8475C1E77738,1.402,-1.033,0.795,0.000,0.000,0.000,-0.483,0.780,-72.724,30.58,-11.5,-71.533,100,27.57
2025-12-11 22:15:39.755,WT901BLE67,90856446-A74E-F462-0152-8475C1E77738,1.402,-1.033,0.795,0.000,0.000,0.000,-0.483,0.780,-72.724,30.58,-11.5,-71.533,100,27.57
2025-12-11 22:15:39.761,WT901BLE67,90856446-A74E-F462-0152-8475C1E77738,1.402,-1.033,0.795,0.000,0.000,0.000,-0.483,0.780,-72.724,30.58,-11.5,-71.533,100,27.57
2025-12-11 22:15:39.765,WT901BLE67,90856446-A74E-F462-0152-8475C1E77738,1.402,-1.033,0.795,0.000,0.000,0.000,-0.483,0.780,-72.724,30.58,-11.5,-71.533,100,27.57
2025-12-11 22:15:39.768,WT901BLE67,90856446-A74E-F462-0152-8475C1E77738,1.400,-1.033,0.796,0.000,0.000,0.000,-0.483,0.780,-72.724,30.58,-11.5,-71.533,100,27.57
2025-12-11 22:15:39.768,WT901BLE67,90856446-A74E-F462-0152-8475C1E77738,1.400,-1.033,0.795,0.000,0.000,0.000,-0.483,0.780,-72.724,30.58,-11.5,-71.533,100,27.57
2025-12-11 22:15:39.770,WT901BLE67,90856446-A74E-F462-0152-8475C1E77738,1.400,-1.033,0.795,0.000,0.000,0.000,-0.483,0.780,-72.724,30.58,-11.5,-71.533,100,27.57
2025-12-11 22:15:39.775,WT901BLE67,90856446-A74E-F462-0152-8475C1E77738,1.400,-1.033,0.795,0.000,0.000,0.000,-0.483,0.780,-72.724,30.58,-11.5,-71.533,100,27.57
2025-12-11 22:15:39.780,WT901BLE67,90856446-A74E-F462-0152-8475C1E77738,1.400,-1.033,0.795,0.000,0.000,0.000,-0.483,0.780,-72.724,30.58,-11.5,-71.533,100,27.57
2025-12-11 22:15:39.785,WT901BLE67,90856446-A74E-F462-0152-8475C1E77738,1.400,-1.033,0.795,0.000,0.000,0.000,-0.483,0.780,-72.724,30.58,-11.5,-71.533,100,27.57
2025-12-11 22:15:39.790,WT901BLE67,90856446-A74E-F462-0152-8475C1E77738,1.400,-1.033,0.795,0.000,0.000,0.000,-0.483,0.780,-72.724,30.58,-11.5,-71.533,100,27.57
2025-12-11 22:15:39.795,WT901BLE67,90856446-A74E-F462-0152-8475C1E77738,1.400,-1.033,0.795,0.000,0.000,0.000,-0.483,0.780,-72.724,30.58,-11.5,-71.533,100,27.57
2025-12-11 22:15:39.797,WT901BLE67,90856446-A74E-F462-0152-8475C1E77738,1.400,-1.032,0.795,0.000,0.000,0.000,-0.483,0.780,-72.724,30.58,-11.5,-71.533,100,27.57
2025-12-11 22:15:39.797,WT901BLE67,90856446-A74E-F462-0152-8475C1E77738,1.400,-1.033,0.795,0.000,0.000,0.000,-0.483,0.780,-72.724,30.58,-11.5,-71.533,100,27.57
2025-12-11 22:15:39.800,WT901BLE67,90856446-A74E-F462-0152-8475C1E77738,1.400,-1.033,0.795,0.000,0.000,0.000,-0.483,0.780,-72.724,30.58,-11.5,-71.533,100,27.57
2025-12-11 22:15:39.805,WT901BLE67,90856446-A74E-F462-0152-8475C1E77738,1.400,-1.033,0.795,0.000,0.000,0.000,-0.483,0.780,-72.724,30.58,-11.5,-71.533,100,27.57
2025-12-11 22:15:39.811,WT901BLE67,90856446-A74E-F462-0152-8475C1E77738,1.400,-1.033,0.795,0.000,0.000,0.000,-0.483,0.780,-72.724,30.58,-11.5,-71.533,100,27.57
2025-12-11 22:15:39.815,WT901BLE67,90856446-A74E-F462-0152-8475C1E77738,1.400,-1.033,0.795,0.000,0.000,0.000,-0.483,0.780,-72.724,30.58,-11.5,-71.533,100,27.57
2025-12-11 22:15:39.820,WT901BLE67,90856446-A74E-F462-0152-8475C1E77738,1.400,-1.033,0.795,0.000,0.000,0.000,-0.483,0.780,-72.724,30.58,-11.5,-71.533,100,27.57
2025-12-11 22:15:39.825,WT901BLE67,90856446-A74E-F462-0152-8475C1E77738,1.400,-1.033,0.795,0.000,0.000,0.000,-0.483,0.780,-72.724,30.58,-11.5,-71.533,100,27.57
2025-12-11 22:15:39.829,WT901BLE67,90856446-A74E-F462-0152-8475C1E77738,1.402,-1.034,0.797,0.000,0.000,0.000,-0.483,0.780,-72.724,30.58,-11.5,-71.533,100,27.57
2025-12-11 22:15:39.829,WT901BLE67,90856446-A74E-F462-0152-8475C1E77738,1.401,-1.033,0.795,0.000,0.000,0.000,-0.483,0.780,-72.724,30.58,-11.5,-71.533,100,27.57
2025-12-11 22:15:39.830,WT901BLE67,90856446-A74E-F462-0152-8475C1E77738,1.401,-1.033,0.795,0.000,0.000,0.000,-0.483,0.780,-72.724,30.58,-11.5,-71.533,100,27.57
2025-12-11 22:15:39.835,WT901BLE67,90856446-A74E-F462-0152-8475C1E77738,1.401,-1.033,0.795,0.000,0.000,0.000,-0.483,0.780,-72.724,30.58,-11.5,-71.533,100,27.57
2025-12-11 22:15:39.840,WT901BLE67,90856446-A74E-F462-0152-8475C1E77738,1.401,-1.033,0.795,0.000,0.000,0.000,-0.483,0.780,-72.724,30.58,-11.5,-71.533,100,27.57
2025-12-11 22:15:39.845,WT901BLE67,90856446-A74E-F462-0152-8475C1E77738,1.401,-1.033,0.795,0.000,0.000,0.000,-0.483,0.780,-72.724,30.58,-11.5,-71.533,100,27.57
2025-12-11 22:15:39.850,WT901BLE67,90856446-A74E-F462-0152-8475C1E77738,1.401,-1.033,0.795,0.000,0.000,0.000,-0.483,0.780,-72.724,30.58,-11.5,-71.533,100,27.57
2025-12-11 22:15:39.855,WT901BLE67,90856446-A74E-F462-0152-8475C1E77738,1.401,-1.033,0.795,0.000,0.000,0.000,-0.483,0.780,-72.724,30.58,-11.5,-71.533,100,27.57
2025-12-11 22:15:39.862,WT901BLE67,90856446-A74E-F462-0152-8475C1E77738,1.401,-1.033,0.795,0.000,0.000,0.000,-0.483,0.780,-72.724,30.58,-11.5,-71.533,100,27.57
2025-12-11 22:15:39.865,WT901BLE67,90856446-A74E-F462-0152-8475C1E77738,1.401,-1.033,0.795,0.000,0.000,0.000,-0.483,0.780,-72.724,30.58,-11.5,-71.533,100,27.57
2025-12-11 22:15:39.870,WT901BLE67,90856446-A74E-F462-0152-8475C1E77738,1.401,-1.033,0.795,0.000,0.000,0.000,-0.483,0.780,-72.724,30.58,-11.5,-71.533,100,27.57
2025-12-11 22:15:39.875,WT901BLE67,90856446-A74E-F462-0152-8475C1E77738,1.401,-1.033,0.795,0.000,0.000,0.000,-0.483,0.780,-72.724,30.58,-11.5,-71.533,100,27.57
2025-12-11 22:15:39.880,WT901BLE67,90856446-A74E-F462-0152-8475C1E77738,1.401,-1.033,0.795,0.000,0.000,0.000,-0.483,0.780,-72.724,30.58,-11.5,-71.533,100,27.57
2025-12-11 22:15:39.885,WT901BLE67,90856446-A74E-F462-0152-8475C1E77738,1.401,-1.033,0.795,0.000,0.000,0.000,-0.483,0.780,-72.724,30.58,-11.5,-71.533,100,27.57
2025-12-11 22:15:39.887,WT901BLE67,90856446-A74E-F462-0152-8475C1E77738,1.400,-1.034,0.796,0.000,0.000,0.000,-0.483,0.780,-72.724,30.58,-11.5,-71.533,100,27.57
2025-12-11 22:15:39.887,WT901BLE67,90856446-A74E-F462-0152-8475C1E77738,1.401,-1.036,0.796,0.000,0.000,0.000,-0.483,0.780,-72.724,30.58,-11.5,-71.533,100,27.57
2025-12-11 22:15:39.890,WT901BLE67,90856446-A74E-F462-0152-8475C1E77738,1.401,-1.036,0.796,0.000,0.000,0.000,-0.483,0.780,-72.724,30.58,-11.5,-71.533,100,27.57
2025-12-11 22:15:39.895,WT901BLE67,90856446-A74E-F462-0152-8475C1E77738,1.401,-1.036,0.796,0.000,0.000,0.000,-0.483,0.780,-72.724,30.58,-11.5,-71.533,100,27.57
2025-12-11 22:15:39.900,WT901BLE67,90856446-A74E-F462-0152-8475C1E77738,1.401,-1.036,0.796,0.000,0.000,0.000,-0.483,0.780,-72.724,30.58,-11.5,-71.533,100,27.57
2025-12-11 22:15:39.905,WT901BLE67,90856446-A74E-F462-0152-8475C1E77738,1.401,-1.036,0.796,0.000,0.000,0.000,-0.483,0.780,-72.724,30.58,-11.5,-71.533,100,27.57
2025-12-11 22:15:39.912,WT901BLE67,90856446-A74E-F462-0152-8475C1E77738,1.401,-1.036,0.796,0.000,0.000,0.000,-0.483,0.780,-72.724,30.58,-11.5,-71.533,100,27.57
2025-12-11 22:15:39.915,WT901BLE67,90856446-A74E-F462-0152-8475C1E77738,1.401,-1.036,0.796,0.000,0.000,0.000,-0.483,0.780,-72.724,30.58,-11.5,-71.533,100,27.57
2025-12-11 22:15:39.918,WT901BLE67,90856446-A74E-F462-0152-8475C1E77738,1.401,-1.034,0.794,0.000,0.000,0.000,-0.483,0.780,-72.724,30.58,-11.5,-71.533,100,27.57
2025-12-11 22:15:39.918,WT901BLE67,90856446-A74E-F462-0152-8475C1E77738,1.399,-1.032,0.795,0.000,0.000,0.000,-0.483,0.780,-72.724,30.58,-11.5,-71.533,100,27.57
2025-12-11 22:15:39.920,WT901BLE67,90856446-A74E-F462-0152-8475C1E77738,1.399,-1.032,0.795,0.000,0.000,0.000,-0.483,0.780,-72.724,30.58,-11.5,-71.533,100,27.57
2025-12-11 22:15:39.925,WT901BLE67,90856446-A74E-F462-0152-8475C1E77738,1.399,-1.032,0.795,0.000,0.000,0.000,-0.483,0.780,-72.724,30.58,-11.5,-71.533,100,27.57
2025-12-11 22:15:39.930,WT901BLE67,90856446-A74E-F462-0152-8475C1E77738,1.399,-1.032,0.795,0.000,0.000,0.000,-0.483,0.780,-72.724,30.58,-11.5,-71.533,100,27.57
2025-12-11 22:15:39.935,WT901BLE67,90856446-A74E-F462-0152-8475C1E77738,1.399,-1.032,0.795,0.000,0.000,0.000,-0.483,0.780,-72.724,30.58,-11.5,-71.533,100,27.57
2025-12-11 22:15:39.940,WT901BLE67,90856446-A74E-F462-0152-8475C1E77738,1.399,-1.032,0.795,0.000,0.000,0.000,-0.483,0.780,-72.724,30.58,-11.5,-71.533,100,27.57
2025-12-11 22:15:39.945,WT901BLE67,90856446-A74E-F462-0152-8475C1E77738,1.399,-1.032,0.795,0.000,0.000,0.000,-0.483,0.780,-72.724,30.58,-11.5,-71.533,100,27.57
2025-12-11 22:15:39.947,WT901BLE67,90856446-A74E-F462-0152-8475C1E77738,1.399,-1.034,0.796,0.000,0.000,0.000,-0.483,0.780,-72.724,30.58,-11.5,-71.533,100,27.57
2025-12-11 22:15:39.947,WT901BLE67,90856446-A74E-F462-0152-8475C1E77738,1.400,-1.033,0.796,0.000,0.000,0.000,-0.483,0.780,-72.724,30.58,-11.5,-71.533,100,27.57
2025-12-11 22:15:39.950,WT901BLE67,90856446-A74E-F462-0152-8475C1E77738,1.400,-1.033,0.796,0.000,0.000,0.000,-0.483,0.780,-72.724,30.58,-11.5,-71.533,100,27.57
2025-12-11 22:15:39.955,WT901BLE67,90856446-A74E-F462-0152-8475C1E77738,1.400,-1.033,0.796,0.000,0.000,0.000,-0.483,0.780,-72.724,30.58,-11.5,-71.533,100,27.57
2025-12-11 22:15:39.961,WT901BLE67,90856446-A74E-F462-0152-8475C1E77738,1.400,-1.033,0.796,0.000,0.000,0.000,-0.483,0.780,-72.724,30.58,-11.5,-71.533,100,27.57
2025-12-11 22:15:39.965,WT901BLE67,90856446-A74E-F462-0152-8475C1E77738,1.400,-1.033,0.796,0.000,0.000,0.000,-0.483,0.780,-72.724,30.58,-11.5,-71.533,100,27.57
2025-12-11 22:15:39.970,WT901BLE67,90856446-A74E-F462-0152-8475C1E77738,1.400,-1.033,0.796,0.000,0.000,0.000,-0.483,0.780,-72.724,30.58,-11.5,-71.533,100,27.57
2025-12-11 22:15:39.975,WT901BLE67,90856446-A74E-F462-0152-8475C1E77738,1.400,-1.033,0.796,0.000,0.000,0.000,-0.483,0.780,-72.724,30.58,-11.5,-71.533,100,27.57
2025-12-11 22:15:39.980,WT901BLE67,90856446-A74E-F462-0152-8475C1E77738,1.400,-1.033,0.796,0.000,0.000,0.000,-0.483,0.780,-72.724,30.58,-11.5,-71.533,100,27.57
2025-12-11 22:15:39.985,WT901BLE67,90856446-A74E-F462-0152-8475C1E77738,1.400,-1.033,0.796,0.000,0.000,0.000,-0.483,0.780,-72.724,30.58,-11.5,-71.533,100,27.57
2025-12-11 22:15:39.990,WT901BLE67,90856446-A74E-F462-0152-8475C1E77738,1.400,-1.033,0.796,0.000,0.000,0.000,-0.483,0.780,-72.724,30.58,-11.5,-71.533,100,27.57
2025-12-11 22:15:39.995,WT901BLE67,90856446-A74E-F462-0152-8475C1E77738,1.400,-1.033,0.796,0.000,0.000,0.000,-0.483,0.780,-72.724,30.58,-11.5,-71.533,100,27.57
2025-12-11 22:15:40.000,WT901BLE67,90856446-A74E-F462-0152-8475C1E77738,1.400,-1.033,0.796,0.000,0.000,0.000,-0.483,0.780,-72.724,30.58,-11.5,-71.533,100,27.57
2025-12-11 22:15:40.005,WT901BLE67,90856446-A74E-F462-0152-8475C1E77738,1.400,-1.033,0.796,0.000,0.000,0.000,-0.483,0.780,-72.724,30.58,-11.5,-71.533,100,27.57
2025-12-11 22:15:40.010,WT901BLE67,90856446-A74E-F462-0152-8475C1E77738,1.399,-1.034,0.795,0.000,0.000,0.000,-0.483,0.780,-72.724,30.58,-11.5,-71.533,100,27.57
2025-12-11 22:15:40.010,WT901BLE67,90856446-A74E-F462-0152-8475C1E77738,1.401,-1.033,0.795,0.000,0.000,0.000,-0.483,0.780,-72.724,30.58,-11.5,-71.533,100,27.57
2025-12-11 22:15:40.011,WT901BLE67,90856446-A74E-F462-0152-8475C1E77738,1.401,-1.033,0.795,0.000,0.000,0.000,-0.483,0.780,-72.724,30.58,-11.5,-71.533,100,27.57
2025-12-11 22:15:40.015,WT901BLE67,90856446-A74E-F462-0152-8475C1E77738,1.401,-1.033,0.795,0.000,0.000,0.000,-0.483,0.780,-72.724,30.58,-11.5,-71.533,100,27.57
2025-12-11 22:15:40.020,WT901BLE67,90856446-A74E-F462-0152-8475C1E77738,1.401,-1.033,0.795,0.000,0.000,0.000,-0.483,0.780,-72.724,30.58,-11.5,-71.533,100,27.57
2025-12-11 22:15:40.025,WT901BLE67,90856446-A74E-F462-0152-8475C1E77738,1.401,-1.033,0.795,0.000,0.000,0.000,-0.483,0.780,-72.724,30.58,-11.5,-71.533,100,27.57
2025-12-11 22:15:40.030,WT901BLE67,90856446-A74E-F462-0152-8475C1E77738,1.401,-1.033,0.795,0.000,0.000,0.000,-0.483,0.780,-72.724,30.58,-11.5,-71.533,100,27.57
2025-12-11 22:15:40.035,WT901BLE67,90856446-A74E-F462-0152-8475C1E77738,1.401,-1.033,0.795,0.000,0.000,0.000,-0.483,0.780,-72.724,30.58,-11.5,-71.533,100,27.57
2025-12-11 22:15:40.040,WT901BLE67,90856446-A74E-F462-0152-8475C1E77738,1.400,-1.033,0.795,0.000,0.000,0.000,-0.483,0.780,-72.724,30.58,-11.5,-71.533,100,27.57
2025-12-11 22:15:40.040,WT901BLE67,90856446-A74E-F462-0152-8475C1E77738,1.401,-1.034,0.795,0.000,0.000,0.000,-0.483,0.780,-72.724,30.58,-11.5,-71.533,100,27.57
2025-12-11 22:15:40.040,WT901BLE67,90856446-A74E-F462-0152-8475C1E77738,1.401,-1.034,0.795,0.000,0.000,0.000,-0.483,0.780,-72.724,30.58,-11.5,-71.533,100,27.57
2025-12-11 22:15:40.045,WT901BLE67,90856446-A74E-F462-0152-8475C1E77738,1.401,-1.034,0.795,0.000,0.000,0.000,-0.483,0.780,-72.724,30.58,-11.5,-71.533,100,27.57
2025-12-11 22:15:40.050,WT901BLE67,90856446-A74E-F462-0152-8475C1E77738,1.401,-1.034,0.795,0.000,0.000,0.000,-0.483,0.780,-72.724,30.58,-11.5,-71.533,100,27.57
2025-12-11 22:15:40.055,WT901BLE67,90856446-A74E-F462-0152-8475C1E77738,1.401,-1.034,0.795,0.000,0.000,0.000,-0.483,0.780,-72.724,30.58,-11.5,-71.533,100,27.57
2025-12-11 22:15:40.061,WT901BLE67,90856446-A74E-F462-0152-8475C1E77738,1.401,-1.034,0.795,0.000,0.000,0.000,-0.483,0.780,-72.724,30.58,-11.5,-71.533,100,27.57
2025-12-11 22:15:40.065,WT901BLE67,90856446-A74E-F462-0152-8475C1E77738,1.401,-1.034,0.795,0.000,0.000,0.000,-0.483,0.780,-72.724,30.58,-11.5,-71.533,100,27.57
2025-12-11 22:15:40.070,WT901BLE67,90856446-A74E-F462-0152-8475C1E77738,1.401,-1.034,0.795,0.000,0.000,0.000,-0.483,0.780,-72.724,30.58,-11.5,-71.533,100,27.57
2025-12-11 22:15:40.070,WT901BLE67,90856446-A74E-F462-0152-8475C1E77738,1.400,-1.034,0.797,0.000,0.000,0.000,-0.483,0.780,-72.724,30.58,-11.5,-71.533,100,27.57
2025-12-11 22:15:40.070,WT901BLE67,90856446-A74E-F462-0152-8475C1E77738,1.401,-1.033,0.795,0.000,0.000,0.000,-0.483,0.780,-72.724,30.58,-11.5,-71.533,100,27.57
2025-12-11 22:15:40.075,WT901BLE67,90856446-A74E-F462-0152-8475C1E77738,1.401,-1.033,0.795,0.000,0.000,0.000,-0.483,0.780,-72.724,30.58,-11.5,-71.533,100,27.57
2025-12-11 22:15:40.080,WT901BLE67,90856446-A74E-F462-0152-8475C1E77738,1.401,-1.033,0.795,0.000,0.000,0.000,-0.483,0.780,-72.724,30.58,-11.5,-71.533,100,27.57
2025-12-11 22:15:40.085,WT901BLE67,90856446-A74E-F462-0152-8475C1E77738,1.401,-1.033,0.795,0.000,0.000,0.000,-0.483,0.780,-72.724,30.58,-11.5,-71.533,100,27.57
2025-12-11 22:15:40.090,WT901BLE67,90856446-A74E-F462-0152-8475C1E77738,1.401,-1.033,0.795,0.000,0.000,0.000,-0.483,0.780,-72.724,30.58,-11.5,-71.533,100,27.57
2025-12-11 22:15:40.095,WT901BLE67,90856446-A74E-F462-0152-8475C1E77738,1.401,-1.033,0.795,0.000,0.000,0.000,-0.483,0.780,-72.724,30.58,-11.5,-71.533,100,27.57
2025-12-11 22:15:40.100,WT901BLE67,90856446-A74E-F462-0152-8475C1E77738,1.401,-1.033,0.795,0.000,0.000,0.000,-0.483,0.780,-72.724,30.58,-11.5,-71.533,100,27.57
2025-12-11 22:15:40.105,WT901BLE67,90856446-A74E-F462-0152-8475C1E77738,1.401,-1.033,0.795,0.000,0.000,0.000,-0.483,0.780,-72.724,30.58,-11.5,-71.533,100,27.57
2025-12-11 22:15:40.112,WT901BLE67,90856446-A74E-F462-0152-8475C1E77738,1.401,-1.033,0.795,0.000,0.000,0.000,-0.483,0.780,-72.724,30.58,-11.5,-71.533,100,27.57
2025-12-11 22:15:40.115,WT901BLE67,90856446-A74E-F462-0152-8475C1E77738,1.401,-1.033,0.795,0.000,0.000,0.000,-0.483,0.780,-72.724,30.58,-11.5,-71.533,100,27.57
2025-12-11 22:15:40.120,WT901BLE67,90856446-A74E-F462-0152-8475C1E77738,1.401,-1.033,0.795,0.000,0.000,0.000,-0.483,0.780,-72.724,30.58,-11.5,-71.533,100,27.57
2025-12-11 22:15:40.125,WT901BLE67,90856446-A74E-F462-0152-8475C1E77738,1.401,-1.033,0.795,0.000,0.000,0.000,-0.483,0.780,-72.724,30.58,-11.5,-71.533,100,27.57
2025-12-11 22:15:40.129,WT901BLE67,90856446-A74E-F462-0152-8475C1E77738,1.399,-1.032,0.793,0.000,0.000,0.000,-0.483,0.780,-72.724,30.58,-11.5,-71.533,100,27.57
2025-12-11 22:15:40.129,WT901BLE67,90856446-A74E-F462-0152-8475C1E77738,1.399,-1.033,0.795,0.000,0.000,0.000,-0.483,0.780,-72.724,30.58,-11.5,-71.533,100,27.57
2025-12-11 22:15:40.130,WT901BLE67,90856446-A74E-F462-0152-8475C1E77738,1.399,-1.033,0.795,0.000,0.000,0.000,-0.483,0.780,-72.724,30.58,-11.5,-71.533,100,27.57
2025-12-11 22:15:40.135,WT901BLE67,90856446-A74E-F462-0152-8475C1E77738,1.399,-1.033,0.795,0.000,0.000,0.000,-0.483,0.780,-72.724,30.58,-11.5,-71.533,100,27.57
2025-12-11 22:15:40.140,WT901BLE67,90856446-A74E-F462-0152-8475C1E77738,1.399,-1.033,0.795,0.000,0.000,0.000,-0.483,0.780,-72.724,30.58,-11.5,-71.533,100,27.57
2025-12-11 22:15:40.145,WT901BLE67,90856446-A74E-F462-0152-8475C1E77738,1.399,-1.033,0.795,0.000,0.000,0.000,-0.483,0.780,-72.724,30.58,-11.5,-71.533,100,27.57
2025-12-11 22:15:40.150,WT901BLE67,90856446-A74E-F462-0152-8475C1E77738,1.399,-1.033,0.795,0.000,0.000,0.000,-0.483,0.780,-72.724,30.58,-11.5,-71.533,100,27.57
2025-12-11 22:15:40.155,WT901BLE67,90856446-A74E-F462-0152-8475C1E77738,1.399,-1.033,0.795,0.000,0.000,0.000,-0.483,0.780,-72.724,30.58,-11.5,-71.533,100,27.57
2025-12-11 22:15:40.159,WT901BLE67,90856446-A74E-F462-0152-8475C1E77738,1.403,-1.033,0.797,0.000,0.000,0.000,-0.483,0.780,-72.724,30.58,-11.5,-71.533,100,27.57
2025-12-11 22:15:40.159,WT901BLE67,90856446-A74E-F462-0152-8475C1E77738,1.400,-1.032,0.796,0.000,0.000,0.000,-0.483,0.780,-72.724,30.58,-11.5,-71.533,100,27.57
2025-12-11 22:15:40.161,WT901BLE67,90856446-A74E-F462-0152-8475C1E77738,1.400,-1.032,0.796,0.000,0.000,0.000,-0.483,0.780,-72.724,30.58,-11.5,-71.533,100,27.57
2025-12-11 22:15:40.165,WT901BLE67,90856446-A74E-F462-0152-8475C1E77738,1.400,-1.032,0.796,0.000,0.000,0.000,-0.483,0.780,-72.724,30.58,-11.5,-71.533,100,27.57
2025-12-11 22:15:40.170,WT901BLE67,90856446-A74E-F462-0152-8475C1E77738,1.400,-1.032,0.796,0.000,0.000,0.000,-0.483,0.780,-72.724,30.58,-11.5,-71.533,100,27.57
2025-12-11 22:15:40.175,WT901BLE67,90856446-A74E-F462-0152-8475C1E77738,1.400,-1.032,0.796,0.000,0.000,0.000,-0.483,0.780,-72.724,30.58,-11.5,-71.533,100,27.57
2025-12-11 22:15:40.180,WT901BLE67,90856446-A74E-F462-0152-8475C1E77738,1.400,-1.032,0.796,0.000,0.000,0.000,-0.483,0.780,-72.724,30.58,-11.5,-71.533,100,27.57
2025-12-11 22:15:40.185,WT901BLE67,90856446-A74E-F462-0152-8475C1E77738,1.400,-1.032,0.796,0.000,0.000,0.000,-0.483,0.780,-72.724,30.58,-11.5,-71.533,100,27.57
2025-12-11 22:15:40.187,WT901BLE67,90856446-A74E-F462-0152-8475C1E77738,1.401,-1.033,0.797,0.000,0.000,0.000,-0.483,0.780,-72.724,30.58,-11.5,-71.533,100,27.57
2025-12-11 22:15:40.187,WT901BLE67,90856446-A74E-F462-0152-8475C1E77738,1.400,-1.034,0.797,0.000,0.000,0.000,-0.483,0.780,-72.724,30.58,-11.5,-71.533,100,27.57
2025-12-11 22:15:40.190,WT901BLE67,90856446-A74E-F462-0152-8475C1E77738,1.400,-1.034,0.797,0.000,0.000,0.000,-0.483,0.780,-72.724,30.58,-11.5,-71.533,100,27.57
2025-12-11 22:15:40.195,WT901BLE67,90856446-A74E-F462-0152-8475C1E77738,1.400,-1.034,0.797,0.000,0.000,0.000,-0.483,0.780,-72.724,30.58,-11.5,-71.533,100,27.57
2025-12-11 22:15:40.200,WT901BLE67,90856446-A74E-F462-0152-8475C1E77738,1.400,-1.034,0.797,0.000,0.000,0.000,-0.483,0.780,-72.724,30.58,-11.5,-71.533,100,27.57
2025-12-11 22:15:40.205,WT901BLE67,90856446-A74E-F462-0152-8475C1E77738,1.400,-1.034,0.797,0.000,0.000,0.000,-0.483,0.780,-72.724,30.58,-11.5,-71.533,100,27.57
2025-12-11 22:15:40.211,WT901BLE67,90856446-A74E-F462-0152-8475C1E77738,1.400,-1.034,0.797,0.000,0.000,0.000,-0.483,0.780,-72.724,30.58,-11.5,-71.533,100,27.57
2025-12-11 22:15:40.215,WT901BLE67,90856446-A74E-F462-0152-8475C1E77738,1.400,-1.034,0.797,0.000,0.000,0.000,-0.483,0.780,-72.724,30.58,-11.5,-71.533,100,27.57
2025-12-11 22:15:40.221,WT901BLE67,90856446-A74E-F462-0152-8475C1E77738,1.400,-1.034,0.797,0.000,0.000,0.000,-0.483,0.780,-72.724,30.58,-11.5,-71.533,100,27.57
2025-12-11 22:15:40.225,WT901BLE67,90856446-A74E-F462-0152-8475C1E77738,1.400,-1.034,0.797,0.000,0.000,0.000,-0.483,0.780,-72.724,30.58,-11.5,-71.533,100,27.57
2025-12-11 22:15:40.230,WT901BLE67,90856446-A74E-F462-0152-8475C1E77738,1.400,-1.034,0.797,0.000,0.000,0.000,-0.483,0.780,-72.724,30.58,-11.5,-71.533,100,27.57
2025-12-11 22:15:40.235,WT901BLE67,90856446-A74E-F462-0152-8475C1E77738,1.400,-1.034,0.797,0.000,0.000,0.000,-0.483,0.780,-72.724,30.58,-11.5,-71.533,100,27.57
2025-12-11 22:15:40.240,WT901BLE67,90856446-A74E-F462-0152-8475C1E77738,1.400,-1.034,0.797,0.000,0.000,0.000,-0.483,0.780,-72.724,30.58,-11.5,-71.533,100,27.57
2025-12-11 22:15:40.245,WT901BLE67,90856446-A74E-F462-0152-8475C1E77738,1.400,-1.034,0.797,0.000,0.000,0.000,-0.483,0.780,-72.724,30.58,-11.5,-71.533,100,27.57
2025-12-11 22:15:40.248,WT901BLE67,90856446-A74E-F462-0152-8475C1E77738,1.401,-1.033,0.795,0.000,0.000,0.000,-0.483,0.780,-72.724,30.58,-11.5,-71.533,100,27.57
2025-12-11 22:15:40.248,WT901BLE67,90856446-A74E-F462-0152-8475C1E77738,1.402,-1.034,0.795,0.000,0.000,0.000,-0.483,0.780,-72.724,30.58,-11.5,-71.533,100,27.57
2025-12-11 22:15:40.250,WT901BLE67,90856446-A74E-F462-0152-8475C1E77738,1.402,-1.034,0.795,0.000,0.000,0.000,-0.483,0.780,-72.724,30.58,-11.5,-71.533,100,27.57
2025-12-11 22:15:40.255,WT901BLE67,90856446-A74E-F462-0152-8475C1E77738,1.402,-1.034,0.795,0.000,0.000,0.000,-0.483,0.780,-72.724,30.58,-11.5,-71.533,100,27.57
2025-12-11 22:15:40.261,WT901BLE67,90856446-A74E-F462-0152-8475C1E77738,1.402,-1.034,0.795,0.000,0.000,0.000,-0.483,0.780,-72.724,30.58,-11.5,-71.533,100,27.57
