Timestamp,DeviceName,Mac,AX,AY,AZ,GX,GY,GZ,AngX,AngY,AngZ,HX,HY,HZ,Electric,Temp
2025-12-11 22:43:51.483,WT901BLE67,90856446-A74E-F462-0152-8475C1E77738,1.400,-1.026,0.795,0.000,0.000,0.000,-0.115,0.797,-134.643,-218.44,-218.44,-206.507,100,31.00
2025-12-11 22:43:51.483,WT901BLE67,90856446-A74E-F462-0152-8475C1E77738,1.399,-1.026,0.795,0.000,0.000,0.000,-0.110,0.802,-134.643,-218.44,-218.44,-206.507,100,31.00
2025-12-11 22:43:51.484,WT901BLE67,90856446-A74E-F462-0152-8475C1E77738,1.399,-1.026,0.795,0.000,0.000,0.000,-0.110,0.802,-134.643,-218.44,-218.44,-206.507,100,31.00
2025-12-11 22:43:51.489,WT901BLE67,90856446-A74E-F462-0152-8475C1E77738,1.399,-1.026,0.795,0.000,0.000,0.000,-0.110,0.802,-134.643,-218.44,-218.44,-206.507,100,31.00
2025-12-11 22:43:51.494,WT901BLE67,90856446-A74E-F462-0152-8475C1E77738,1.399,-1.026,0.795,0.000,0.000,0.000,-0.110,0.802,-134.643,-218.44,-218.44,-206.507,100,31.00
2025-12-11 22:43:51.499,WT901BLE67,90856446-A74E-F462-0152-8475C1E77738,1.399,-1.026,0.795,0.000,0.000,0.000,-0.110,0.802,-134.643,-218.44,-218.44,-206.507,100,31.00
2025-12-11 22:43:51.504,WT901BLE67,90856446-A74E-F462-0152-8475C1E77738,1.399,-1.026,0.795,0.000,0.000,0.000,-0.110,0.802,-134.643,-218.44,-218.44,-206.507,100,31.00
2025-12-11 22:43:51.509,WT901BLE67,90856446-A74E-F462-0152-8475C1E77738,1.398,-1.027,0.794,0.000,0.000,0.000,-0.110,0.802,-134.643,-218.44,-218.44,-206.507,100,31.00
2025-12-11 22:43:51.509,WT901BLE67,90856446-A74E-F462-0152-8475C1E77738,1.398,-1.027,0.794,0.000,0.000,0.000,-0.110,0.802,-134.643,-218.44,-218.44,-206.507,100,31.00
2025-12-11 22:43:51.509,WT901BLE67,90856446-A74E-F462-0152-8475C1E77738,1.398,-1.027,0.794,0.000,0.000,0.000,-0.110,0.802,-134.643,-218.44,-218.44,-206.507,100,31.00
2025-12-11 22:43:51.514,WT901BLE67,90856446-A74E-F462-0152-8475C1E77738,1.398,-1.027,0.794,0.000,0.000,0.000,-0.110,0.802,-134.643,-218.44,-218.44,-206.507,100,31.00
2025-12-11 22:43:51.520,WT901BLE67,90856446-A74E-F462-0152-8475C1E77738,1.398,-1.027,0.794,0.000,0.000,0.000,-0.110,0.802,-134.643,-218.44,-218.44,-206.507,100,31.00
2025-12-11 22:43:51.524,WT901BLE67,90856446-A74E-F462-0152-8475C1E77738,1.398,-1.027,0.794,0.000,0.000,0.000,-0.110,0.802,-134.643,-218.44,-218.44,-206.507,100,31.00
2025-12-11 22:43:51.529,WT901BLE67,90856446-A74E-F462-0152-8475C1E77738,1.398,-1.027,0.794,0.000,0.000,0.000,-0.110,0.802,-134.643,-218.44,-218.44,-206.507,100,31.00
2025-12-11 22:43:51.534,WT901BLE67,90856446-A74E-F462-0152-8475C1E77738,1.398,-1.027,0.794,0.000,0.000,0.000,-0.110,0.802,-134.643,-218.44,-218.44,-206.507,100,31.00
2025-12-11 22:43:51.539,WT901BLE67,90856446-A74E-F462-0152-8475C1E77738,1.398,-1.027,0.794,0.000,0.000,0.000,-0.110,0.802,-134.643,-218.44,-218.44,-206.507,100,31.00
2025-12-11 22:43:51.544,WT901BLE67,90856446-A74E-F462-0152-8475C1E77738,1.398,-1.027,0.794,0.000,0.000,0.000,-0.110,0.802,-134.643,-218.44,-218.44,-206.507,100,31.00
2025-12-11 22:43:51.549,WT901BLE67,90856446-A74E-F462-0152-8475C1E77738,1.398,-1.027,0.794,0.000,0.000,0.000,-0.110,0.802,-134.643,-218.44,-218.44,-206.507,100,31.00
2025-12-11 22:43:51.554,WT901BLE67,90856446-A74E-F462-0152-8475C1E77738,1.398,-1.027,0.794,0.000,0.000,0.000,-0.110,0.802,-134.643,-218.44,-218.44,-206.507,100,31.00
2025-12-11 22:43:51.559,WT901BLE67,90856446-A74E-F462-0152-8475C1E77738,1.398,-1.027,0.794,0.000,0.000,0.000,-0.110,0.802,-134.643,-218.44,-218.44,-206.507,100,31.00
2025-12-11 22:43:51.564,WT901BLE67,90856446-A74E-F462-0152-8475C1E77738,1.398,-1.027,0.794,0.000,0.000,0.000,-0.110,0.802,-134.643,-218.44,-218.44,-206.507,100,31.00
2025-12-11 22:43:51.570,WT901BLE67,90856446-A74E-F462-0152-8475C1E77738,1.399,-1.027,0.793,0.000,0.000,0.000,-0.110,0.802,-134.643,-218.44,-218.44,-206.507,100,31.00
2025-12-11 22:43:51.570,WT901BLE67,90856446-A74E-F462-0152-8475C1E77738,1.398,-1.027,0.794,0.000,0.000,0.000,-0.110,0.802,-134.643,-218.44,-218.44,-206.507,100,31.00
2025-12-11 22:43:51.570,WT901BLE67,90856446-A74E-F462-0152-8475C1E77738,1.398,-1.027,0.794,0.000,0.000,0.000,-0.110,0.802,-134.643,-218.44,-218.44,-206.507,100,31.00
2025-12-11 22:43:51.574,WT901BLE67,90856446-A74E-F462-0152-8475C1E77738,1.398,-1.027,0.794,0.000,0.000,0.000,-0.110,0.802,-134.643,-218.44,-218.44,-206.507,100,31.00
2025-12-11 22:43:51.579,WT901BLE67,90856446-A74E-F462-0152-8475C1E77738,1.398,-1.027,0.794,0.000,0.000,0.000,-0.110,0.802,-134.643,-218.44,-218.44,-206.507,100,31.00
2025-12-11 22:43:51.584,WT901BLE67,90856446-A74E-F462-0152-8475C1E77738,1.398,-1.027,0.794,0.000,0.000,0.000,-0.110,0.802,-134.643,-218.44,-218.44,-206.507,100,31.00
2025-12-11 22:43:51.589,WT901BLE67,90856446-A74E-F462-0152-8475C1E77738,1.398,-1.027,0.794,0.000,0.000,0.000,-0.110,0.802,-134.643,-218.44,-218.44,-206.507,100,31.00
2025-12-11 22:43:51.594,WT901BLE67,90856446-A74E-F462-0152-8475C1E77738,1.398,-1.027,0.794,0.000,0.000,0.000,-0.110,0.802,-134.643,-218.44,-218.44,-206.507,100,31.00
2025-12-11 22:43:51.598,WT901BLE67,90856446-A74E-F462-0152-8475C1E77738,1.402,-1.026,0.793,0.000,0.000,0.000,-0.110,0.802,-134.643,-218.44,-218.44,-206.507,100,31.00
2025-12-11 22:43:51.598,WT901BLE67,90856446-A74E-F462-0152-8475C1E77738,1.399,-1.025,0.793,0.000,0.000,0.000,-0.110,0.802,-134.643,-218.44,-218.44,-206.507,100,31.00
2025-12-11 22:43:51.599,WT901BLE67,90856446-A74E-F462-0152-8475C1E77738,1.399,-1.025,0.793,0.000,0.000,0.000,-0.110,0.802,-134.643,-218.44,-218.44,-206.507,100,31.00
2025-12-11 22:43:51.604,WT901BLE67,90856446-A74E-F462-0152-8475C1E77738,1.399,-1.025,0.793,0.000,0.000,0.000,-0.110,0.802,-134.643,-218.44,-218.44,-206.507,100,31.00
2025-12-11 22:43:51.609,WT901BLE67,90856446-A74E-F462-0152-8475C1E77738,1.399,-1.025,0.793,0.000,0.000,0.000,-0.110,0.802,-134.643,-218.44,-218.44,-206.507,100,31.00
2025-12-11 22:43:51.614,WT901BLE67,90856446-A74E-F462-0152-8475C1E77738,1.399,-1.025,0.793,0.000,0.000,0.000,-0.110,0.802,-134.643,-218.44,-218.44,-206.507,100,31.00
2025-12-11 22:43:51.620,WT901BLE67,90856446-A74E-F462-0152-8475C1E77738,1.399,-1.025,0.793,0.000,0.000,0.000,-0.110,0.802,-134.643,-218.44,-218.44,-206.507,100,31.00
2025-12-11 22:43:51.624,WT901BLE67,90856446-A74E-F462-0152-8475C1E77738,1.399,-1.025,0.793,0.000,0.000,0.000,-0.110,0.802,-134.643,-218.44,-218.44,-206.507,100,31.00
2025-12-11 22:43:51.628,WT901BLE67,90856446-A74E-F462-0152-8475C1E77738,1.398,-1.026,0.794,0.000,0.000,0.000,-0.110,0.802,-134.643,-218.44,-218.44,-206.507,100,31.00
2025-12-11 22:43:51.628,WT901BLE67,90856446-A74E-F462-0152-8475C1E77738,1.400,-1.027,0.793,0.000,0.000,0.000,-0.110,0.802,-134.643,-218.44,-218.44,-206.507,100,31.00
2025-12-11 22:43:51.629,WT901BLE67,90856446-A74E-F462-0152-8475C1E77738,1.400,-1.027,0.793,0.000,0.000,0.000,-0.110,0.802,-134.643,-218.44,-218.44,-206.507,100,31.00
2025-12-11 22:43:51.634,WT901BLE67,90856446-A74E-F462-0152-8475C1E77738,1.400,-1.027,0.793,0.000,0.000,0.000,-0.110,0.802,-134.643,-218.44,-218.44,-206.507,100,31.00
2025-12-11 22:43:51.639,WT901BLE67,90856446-A74E-F462-0152-8475C1E77738,1.400,-1.027,0.793,0.000,0.000,0.000,-0.110,0.802,-134.643,-218.44,-218.44,-206.507,100,31.00
2025-12-11 22:43:51.644,WT901BLE67,90856446-A74E-F462-0152-8475C1E77738,1.400,-1.027,0.793,0.000,0.000,0.000,-0.110,0.802,-134.643,-218.44,-218.44,-206.507,100,31.00
2025-12-11 22:43:51.649,WT901BLE67,90856446-A74E-F462-0152-8475C1E77738,1.400,-1.027,0.793,0.000,0.000,0.000,-0.110,0.802,-134.643,-218.44,-218.44,-206.507,100,31.00
2025-12-11 22:43:51.654,WT901BLE67,90856446-A74E-F462-0152-8475C1E77738,1.400,-1.027,0.793,0.000,0.000,0.000,-0.110,0.802,-134.643,-218.44,-218.44,-206.507,100,31.00
2025-12-11 22:43:51.659,WT901BLE67,90856446-A74E-F462-0152-8475C1E77738,1.400,-1.027,0.793,0.000,0.000,0.000,-0.110,0.802,-134.643,-218.44,-218.44,-206.507,100,31.00
2025-12-11 22:43:51.664,WT901BLE67,90856446-A74E-F462-0152-8475C1E77738,1.400,-1.027,0.793,0.000,0.000,0.000,-0.110,0.802,-134.643,-218.44,-218.44,-206.507,100,31.00
2025-12-11 22:43:51.670,WT901BLE67,90856446-A74E-F462-0152-8475C1E77738,1.400,-1.027,0.793,0.000,0.000,0.000,-0.110,0.802,-134.643,-218.44,-218.44,-206.507,100,31.00
2025-12-11 22:43:51.674,WT901BLE67,90856446-A74E-F462-0152-8475C1E77738,1.400,-1.027,0.793,0.000,0.000,0.000,-0.110,0.802,-134.643,-218.44,-218.44,-206.507,100,31.00
2025-12-11 22:43:51.679,WT901BLE67,90856446-A74E-F462-0152-8475C1E77738,1.400,-1.027,0.793,0.000,0.000,0.000,-0.110,0.802,-134.643,-218.44,-218.44,-206.507,100,31.00
2025-12-11 22:43:51.684,WT901BLE67,90856446-A74E-F462-0152-8475C1E77738,1.400,-1.027,0.793,0.000,0.000,0.000,-0.110,0.802,-134.643,-218.44,-218.44,-206.507,100,31.00
2025-12-11 22:43:51.689,WT901BLE67,90856446-A74E-F462-0152-8475C1E77738,1.400,-1.027,0.793,0.000,0.000,0.000,-0.110,0.802,-134.643,-218.44,-218.44,-206.507,100,31.00
2025-12-11 22:43:51.691,WT901BLE67,90856446-A74E-F462-0152-8475C1E77738,1.400,-1.026,0.795,0.000,0.000,0.000,-0.110,0.802,-134.643,-218.44,-218.44,-206.507,100,31.00
2025-12-11 22:43:51.692,WT901BLE67,90856446-A74E-F462-0152-8475C1E77738,1.400,-1.026,0.792,0.000,0.000,0.000,-0.110,0.802,-134.643,-218.44,-218.44,-206.507,100,31.00
2025-12-11 22:43:51.694,WT901BLE67,90856446-A74E-F462-0152-8475C1E77738,1.400,-1.026,0.792,0.000,0.000,0.000,-0.110,0.802,-134.643,-218.44,-218.44,-206.507,100,31.00
2025-12-11 22:43:51.699,WT901BLE67,90856446-A74E-F462-0152-8475C1E77738,1.400,-1.026,0.792,0.000,0.000,0.000,-0.110,0.802,-134.643,-218.44,-218.44,-206.507,100,31.00
2025-12-11 22:43:51.703,WT901BLE67,90856446-A74E-F462-0152-8475C1E77738,1.400,-1.026,0.792,0.000,0.000,0.000,-0.110,0.802,-134.643,-218.44,-218.44,-206.507,100,31.00
2025-12-11 22:43:51.709,WT901BLE67,90856446-A74E-F462-0152-8475C1E77738,1.400,-1.026,0.792,0.000,0.000,0.000,-0.110,0.802,-134.643,-218.44,-218.44,-206.507,100,31.00
2025-12-11 22:43:51.714,WT901BLE67,90856446-A74E-F462-0152-8475C1E77738,1.400,-1.026,0.792,0.000,0.000,0.000,-0.110,0.802,-134.643,-218.44,-218.44,-206.507,100,31.00
2025-12-11 22:43:51.720,WT901BLE67,90856446-A74E-F462-0152-8475C1E77738,1.400,-1.027,0.794,0.000,0.000,0.000,-0.110,0.802,-134.643,-218.44,-218.44,-206.507,100,31.00
2025-12-11 22:43:51.720,WT901BLE67,90856446-A74E-F462-0152-8475C1E77738,1.398,-1.027,0.814,0.000,0.000,0.000,-0.110,0.802,-134.643,-218.44,-218.44,-206.507,100,31.00
2025-12-11 22:43:51.720,WT901BLE67,90856446-A74E-F462-0152-8475C1E77738,1.398,-1.027,0.814,0.000,0.000,0.000,-0.110,0.802,-134.643,-218.44,-218.44,-206.507,100,31.00
2025-12-11 22:43:51.724,WT901BLE67,90856446-A74E-F462-0152-8475C1E77738,1.398,-1.027,0.814,0.000,0.000,0.000,-0.110,0.802,-134.643,-218.44,-218.44,-206.507,100,31.00
2025-12-11 22:43:51.729,WT901BLE67,90856446-A74E-F462-0152-8475C1E77738,1.398,-1.027,0.814,0.000,0.000,0.000,-0.110,0.802,-134.643,-218.44,-218.44,-206.507,100,31.00
2025-12-11 22:43:51.734,WT901BLE67,90856446-A74E-F462-0152-8475C1E77738,1.398,-1.027,0.814,0.000,0.000,0.000,-0.110,0.802,-134.643,-218.44,-218.44,-206.507,100,31.00
2025-12-11 22:43:51.739,WT901BLE67,90856446-A74E-F462-0152-8475C1E77738,1.398,-1.027,0.814,0.000,0.000,0.000,-0.110,0.802,-134.643,-218.44,-218.44,-206.507,100,31.00
2025-12-11 22:43:51.744,WT901BLE67,90856446-A74E-F462-0152-8475C1E77738,1.398,-1.027,0.814,0.000,0.000,0.000,-0.110,0.802,-134.643,-218.44,-218.44,-206.507,100,31.00
2025-12-11 22:43:51.749,WT901BLE67,90856446-A74E-F462-0152-8475C1E77738,1.398,-1.027,0.814,0.000,0.000,0.000,-0.110,0.802,-134.643,-218.44,-218.44,-206.507,100,31.00
2025-12-11 22:43:51.751,WT901BLE67,90856446-A74E-F462-0152-8475C1E77738,1.399,-1.023,0.789,0.000,0.000,0.000,-0.110,0.802,-134.643,-218.44,-218.44,-206.507,100,31.00
2025-12-11 22:43:51.751,WT901BLE67,90856446-A74E-F462-0152-8475C1E77738,1.400,-1.028,0.800,0.000,0.000,0.000,-0.110,0.802,-134.643,-218.44,-218.44,-206.507,100,31.00
2025-12-11 22:43:51.754,WT901BLE67,90856446-A74E-F462-0152-8475C1E77738,1.400,-1.028,0.800,0.000,0.000,0.000,-0.110,0.802,-134.643,-218.44,-218.44,-206.507,100,31.00
2025-12-11 22:43:51.759,WT901BLE67,90856446-A74E-F462-0152-8475C1E77738,1.400,-1.028,0.800,0.000,0.000,0.000,-0.110,0.802,-134.643,-218.44,-218.44,-206.507,100,31.00
2025-12-11 22:43:51.764,WT901BLE67,90856446-A74E-F462-0152-8475C1E77738,1.400,-1.028,0.800,0.000,0.000,0.000,-0.110,0.802,-134.643,-218.44,-218.44,-206.507,100,31.00
2025-12-11 22:43:51.770,WT901BLE67,90856446-A74E-F462-0152-8475C1E77738,1.400,-1.028,0.800,0.000,0.000,0.000,-0.110,0.802,-134.643,-218.44,-218.44,-206.507,100,31.00
2025-12-11 22:43:51.774,WT901BLE67,90856446-A74E-F462-0152-8475C1E77738,1.400,-1.028,0.800,0.000,0.000,0.000,-0.110,0.802,-134.643,-218.44,-218.44,-206.507,100,31.00
2025-12-11 22:43:51.779,WT901BLE67,90856446-A74E-F462-0152-8475C1E77738,1.400,-1.028,0.800,0.000,0.000,0.000,-0.110,0.802,-134.643,-218.44,-218.44,-206.507,100,31.00
2025-12-11 22:43:51.784,WT901BLE67,90856446-A74E-F462-0152-8475C1E77738,1.400,-1.028,0.800,0.000,0.000,0.000,-0.110,0.802,-134.643,-218.44,-218.44,-206.507,100,31.00
2025-12-11 22:43:51.789,WT901BLE67,90856446-A74E-F462-0152-8475C1E77738,1.400,-1.028,0.800,0.000,0.000,0.000,-0.110,0.802,-134.643,-218.44,-218.44,-206.507,100,31.00
2025-12-11 22:43:51.794,WT901BLE67,90856446-A74E-F462-0152-8475C1E77738,1.400,-1.028,0.800,0.000,0.000,0.000,-0.110,0.802,-134.643,-218.44,-218.44,-206.507,100,31.00
2025-12-11 22:43:51.799,WT901BLE67,90856446-A74E-F462-0152-8475C1E77738,1.400,-1.028,0.800,0.000,0.000,0.000,-0.110,0.802,-134.643,-218.44,-218.44,-206.507,100,31.00
2025-12-11 22:43:51.804,WT901BLE67,90856446-A74E-F462-0152-8475C1E77738,1.400,-1.028,0.800,0.000,0.000,0.000,-0.110,0.802,-134.643,-218.44,-218.44,-206.507,100,31.00
2025-12-11 22:43:51.807,WT901BLE67,90856446-A74E-F462-0152-8475C1E77738,1.398,-1.025,0.800,0.000,0.000,0.000,-0.110,0.802,-134.643,-218.44,-218.44,-206.507,100,31.00
2025-12-11 22:43:51.807,WT901BLE67,90856446-A74E-F462-0152-8475C1E77738,1.398,-1.028,0.792,0.000,0.000,0.000,-0.110,0.802,-134.643,-218.44,-218.44,-206.507,100,31.00
2025-12-11 22:43:51.809,WT901BLE67,90856446-A74E-F462-0152-8475C1E77738,1.398,-1.028,0.792,0.000,0.000,0.000,-0.110,0.802,-134.643,-218.44,-218.44,-206.507,100,31.00
2025-12-11 22:43:51.814,WT901BLE67,90856446-A74E-F462-0152-8475C1E77738,1.398,-1.028,0.792,0.000,0.000,0.000,-0.110,0.802,-134.643,-218.44,-218.44,-206.507,100,31.00
2025-12-11 22:43:51.820,WT901BLE67,90856446-A74E-F462-0152-8475C1E77738,1.398,-1.028,0.792,0.000,0.000,0.000,-0.110,0.802,-134.643,-218.44,-218.44,-206.507,100,31.00
2025-12-11 22:43:51.824,WT901BLE67,90856446-A74E-F462-0152-8475C1E77738,1.398,-1.028,0.792,0.000,0.000,0.000,-0.110,0.802,-134.643,-218.44,-218.44,-206.507,100,31.00
2025-12-11 22:43:51.829,WT901BLE67,90856446-A74E-F462-0152-8475C1E77738,1.398,-1.028,0.792,0.000,0.000,0.000,-0.110,0.802,-134.643,-218.44,-218.44,-206.507,100,31.00
2025-12-11 22:43:51.834,WT901BLE67,90856446-A74E-F462-0152-8475C1E77738,1.398,-1.028,0.792,0.000,0.000,0.000,-0.110,0.802,-134.643,-218.44,-218.44,-206.507,100,31.00
2025-12-11 22:43:51.839,WT901BLE67,90856446-A74E-F462-0152-8475C1E77738,1.398,-1.028,0.792,0.000,0.000,0.000,-0.110,0.802,-134.643,-218.44,-218.44,-206.507,100,31.00
2025-12-11 22:43:51.844,WT901BLE67,90856446-A74E-F462-0152-8475C1E77738,1.398,-1.028,0.792,0.000,0.000,0.000,-0.110,0.802,-134.643,-218.44,-218.44,-206.507,100,31.00
2025-12-11 22:43:51.849,WT901BLE67,90856446-A74E-F462-0152-8475C1E77738,1.398,-1.028,0.792,0.000,0.000,0.000,-0.110,0.802,-134.643,-218.44,-218.44,-206.507,100,31.00
2025-12-11 22:43:51.854,WT901BLE67,90856446-A74E-F462-0152-8475C1E77738,1.398,-1.028,0.792,0.000,0.000,0.000,-0.110,0.802,-134.643,-218.44,-218.44,-206.507,100,31.00
2025-12-11 22:43:51.859,WT901BLE67,90856446-A74E-F462-0152-8475C1E77738,1.398,-1.028,0.792,0.000,0.000,0.000,-0.110,0.802,-134.643,-218.44,-218.44,-206.507,100,31.00
2025-12-11 22:43:51.864,WT901BLE67,90856446-A74E-F462-0152-8475C1E77738,1.398,-1.028,0.792,0.000,0.000,0.000,-0.110,0.802,-134.643,-218.44,-218.44,-206.507,100,31.00
2025-12-11 22:43:51.870,WT901BLE67,90856446-A74E-F462-0152-8475C1E77738,1.398,-1.023,0.799,0.000,0.000,0.000,-0.110,0.802,-134.643,-218.44,-218.44,-206.507,100,31.00
2025-12-11 22:43:51.870,WT901BLE67,90856446-A74E-F462-0152-8475C1E77738,1.400,-1.025,0.789,0.000,0.000,0.000,-0.104,0.802,-134.643,-218.44,-218.44,-206.507,100,31.00
2025-12-11 22:43:51.870,WT901BLE67,90856446-A74E-F462-0152-8475C1E77738,1.396,-1.043,0.782,0.000,0.000,0.000,-0.093,0.807,-134.637,-218.44,-218.44,-206.507,100,31.00
2025-12-11 22:43:51.870,WT901BLE67,90856446-A74E-F462-0152-8475C1E77738,1.396,-1.043,0.782,0.000,0.000,0.000,-0.093,0.807,-134.637,-218.44,-218.44,-206.507,100,31.00
2025-12-11 22:43:51.874,WT901BLE67,90856446-A74E-F462-0152-8475C1E77738,1.396,-1.043,0.782,0.000,0.000,0.000,-0.093,0.807,-134.637,-218.44,-218.44,-206.507,100,31.00
2025-12-11 22:43:51.879,WT901BLE67,90856446-A74E-F462-0152-8475C1E77738,1.396,-1.043,0.782,0.000,0.000,0.000,-0.093,0.807,-134.637,-218.44,-218.44,-206.507,100,31.00
2025-12-11 22:43:51.884,WT901BLE67,90856446-A74E-F462-0152-8475C1E77738,1.396,-1.043,0.782,0.000,0.000,0.000,-0.093,0.807,-134.637,-218.44,-218.44,-206.507,100,31.00
2025-12-11 22:43:51.889,WT901BLE67,90856446-A74E-F462-0152-8475C1E77738,1.396,-1.043,0.782,0.000,0.000,0.000,-0.093,0.807,-134.637,-218.44,-218.44,-206.507,100,31.00
2025-12-11 22:43:51.894,WT901BLE67,90856446-A74E-F462-0152-8475C1E77738,1.396,-1.043,0.782,0.000,0.000,0.000,-0.093,0.807,-134.637,-218.44,-218.44,-206.507,100,31.00
2025-12-11 22:43:51.899,WT901BLE67,90856446-A74E-F462-0152-8475C1E77738,1.396,-1.043,0.782,0.000,0.000,0.000,-0.093,0.807,-134.637,-218.44,-218.44,-206.507,100,31.00
2025-12-11 22:43:51.904,WT901BLE67,90856446-A74E-F462-0152-8475C1E77738,1.396,-1.043,0.782,0.000,0.000,0.000,-0.093,0.807,-134.637,-218.44,-218.44,-206.507,100,31.00
2025-12-11 22:43:51.909,WT901BLE67,90856446-A74E-F462-0152-8475C1E77738,1.396,-1.043,0.782,0.000,0.000,0.000,-0.093,0.807,-134.637,-218.44,-218.44,-206.507,100,31.00
2025-12-11 22:43:51.914,WT901BLE67,90856446-A74E-F462-0152-8475C1E77738,1.396,-1.043,0.782,0.000,0.000,0.000,-0.093,0.807,-134.637,-218.44,-218.44,-206.507,100,31.00
2025-12-11 22:43:51.920,WT901BLE67,90856446-A74E-F462-0152-8475C1E77738,1.396,-1.043,0.782,0.000,0.000,0.000,-0.093,0.807,-134.637,-218.44,-218.44,-206.507,100,31.00
2025-12-11 22:43:51.924,WT901BLE67,90856446-A74E-F462-0152-8475C1E77738,1.396,-1.043,0.782,0.000,0.000,0.000,-0.093,0.807,-134.637,-218.44,-218.44,-206.507,100,31.00
2025-12-11 22:43:51.929,WT901BLE67,90856446-A74E-F462-0152-8475C1E77738,1.396,-1.043,0.782,0.000,0.000,0.000,-0.093,0.807,-134.637,-218.44,-218.44,-206.507,100,31.00
2025-12-11 22:43:51.932,WT901BLE67,90856446-A74E-F462-0152-8475C1E77738,1.438,-1.029,0.777,0.000,0.000,0.000,-0.104,0.807,-134.643,-218.44,-218.44,-206.507,100,31.00
2025-12-11 22:43:51.932,WT901BLE67,90856446-A74E-F462-0152-8475C1E77738,1.659,-0.907,0.788,-0.183,1.038,176.758,-0.055,0.802,-130.309,-218.44,-218.44,-206.507,100,31.00
2025-12-11 22:43:51.934,WT901BLE67,90856446-A74E-F462-0152-8475C1E77738,1.659,-0.907,0.788,-0.183,1.038,176.758,-0.055,0.802,-130.309,-218.44,-218.44,-206.507,100,31.00
2025-12-11 22:43:51.939,WT901BLE67,90856446-A74E-F462-0152-8475C1E77738,1.659,-0.907,0.788,-0.183,1.038,176.758,-0.055,0.802,-130.309,-218.44,-218.44,-206.507,100,31.00
2025-12-11 22:43:51.944,WT901BLE67,90856446-A74E-F462-0152-8475C1E77738,1.659,-0.907,0.788,-0.183,1.038,176.758,-0.055,0.802,-130.309,-218.44,-218.44,-206.507,100,31.00
2025-12-11 22:43:51.949,WT901BLE67,90856446-A74E-F462-0152-8475C1E77738,1.659,-0.907,0.788,-0.183,1.038,176.758,-0.055,0.802,-130.309,-218.44,-218.44,-206.507,100,31.00
2025-12-11 22:43:51.954,WT901BLE67,90856446-A74E-F462-0152-8475C1E77738,1.659,-0.907,0.788,-0.183,1.038,176.758,-0.055,0.802,-130.309,-218.44,-218.44,-206.507,100,31.00
2025-12-11 22:43:51.959,WT901BLE67,90856446-A74E-F462-0152-8475C1E77738,1.659,-0.907,0.788,-0.183,1.038,176.758,-0.055,0.802,-130.309,-218.44,-218.44,-206.507,100,31.00
2025-12-11 22:43:51.962,WT901BLE67,90856446-A74E-F462-0152-8475C1E77738,1.369,-0.917,0.799,-4.272,-1.282,181.519,-0.082,0.802,-132.061,-218.44,-218.44,-206.507,100,31.00
2025-12-11 22:43:51.962,WT901BLE67,90856446-A74E-F462-0152-8475C1E77738,1.271,-1.002,0.776,-1.526,0.000,59.387,-0.033,0.791,-126.337,-218.44,-218.44,-206.507,100,31.00
2025-12-11 22:43:51.964,WT901BLE67,90856446-A74E-F462-0152-8475C1E77738,1.271,-1.002,0.776,-1.526,0.000,59.387,-0.033,0.791,-126.337,-218.44,-218.44,-206.507,100,31.00
2025-12-11 22:43:51.971,WT901BLE67,90856446-A74E-F462-0152-8475C1E77738,1.271,-1.002,0.776,-1.526,0.000,59.387,-0.033,0.791,-126.337,-218.44,-218.44,-206.507,100,31.00
2025-12-11 22:43:51.974,WT901BLE67,90856446-A74E-F462-0152-8475C1E77738,1.271,-1.002,0.776,-1.526,0.000,59.387,-0.033,0.791,-126.337,-218.44,-218.44,-206.507,100,31.00
2025-12-11 22:43:51.979,WT901BLE67,90856446-A74E-F462-0152-8475C1E77738,1.271,-1.002,0.776,-1.526,0.000,59.387,-0.033,0.791,-126.337,-218.44,-218.44,-206.507,100,31.00
2025-12-11 22:43:51.984,WT901BLE67,90856446-A74E-F462-0152-8475C1E77738,1.271,-1.002,0.776,-1.526,0.000,59.387,-0.033,0.791,-126.337,-218.44,-218.44,-206.507,100,31.00
2025-12-11 22:43:51.989,WT901BLE67,90856446-A74E-F462-0152-8475C1E77738,1.271,-1.002,0.776,-1.526,0.000,59.387,-0.033,0.791,-126.337,-218.44,-218.44,-206.507,100,31.00
2025-12-11 22:43:51.991,WT901BLE67,90856446-A74E-F462-0152-8475C1E77738,1.404,-1.066,0.770,0.000,0.488,79.224,-0.033,0.791,-126.936,-218.44,-218.44,-206.507,100,31.00
2025-12-11 22:43:51.992,WT901BLE67,90856446-A74E-F462-0152-8475C1E77738,1.330,-0.989,0.789,-4.761,-0.305,-26.978,-0.137,0.786,-126.244,-218.44,-218.44,-206.507,100,31.00
2025-12-11 22:43:51.994,WT901BLE67,90856446-A74E-F462-0152-8475C1E77738,1.330,-0.989,0.789,-4.761,-0.305,-26.978,-0.137,0.786,-126.244,-218.44,-218.44,-206.507,100,31.00
2025-12-11 22:43:51.999,WT901BLE67,90856446-A74E-F462-0152-8475C1E77738,1.330,-0.989,0.789,-4.761,-0.305,-26.978,-0.137,0.786,-126.244,-218.44,-218.44,-206.507,100,31.00
2025-12-11 22:43:52.004,WT901BLE67,90856446-A74E-F462-0152-8475C1E77738,1.330,-0.989,0.789,-4.761,-0.305,-26.978,-0.137,0.786,-126.244,-218.44,-218.44,-206.507,100,31.00
2025-12-11 22:43:52.009,WT901BLE67,90856446-A74E-F462-0152-8475C1E77738,1.330,-0.989,0.789,-4.761,-0.305,-26.978,-0.137,0.786,-126.244,-218.44,-218.44,-206.507,100,31.00
2025-12-11 22:43:52.014,WT901BLE67,90856446-A74E-F462-0152-8475C1E77738,1.330,-0.989,0.789,-4.761,-0.305,-26.978,-0.137,0.786,-126.244,-218.44,-218.44,-206.507,100,31.00
2025-12-11 22:43:52.020,WT901BLE67,90856446-A74E-F462-0152-8475C1E77738,1.330,-0.989,0.789,-4.761,-0.305,-26.978,-0.137,0.786,-126.244,-218.44,-218.44,-206.507,100,31.00
2025-12-11 22:43:52.024,WT901BLE67,90856446-A74E-F462-0152-8475C1E77738,1.330,-0.989,0.789,-4.761,-0.305,-26.978,-0.137,0.786,-126.244,-218.44,-218.44,-206.507,100,31.00
2025-12-11 22:43:52.029,WT901BLE67,90856446-A74E-F462-0152-8475C1E77738,1.330,-0.989,0.789,-4.761,-0.305,-26.978,-0.137,0.786,-126.244,-218.44,-218.44,-206.507,100,31.00
2025-12-11 22:43:52.034,WT901BLE67,90856446-A74E-F462-0152-8475C1E77738,1.330,-0.989,0.789,-4.761,-0.305,-26.978,-0.137,0.786,-126.244,-218.44,-218.44,-206.507,100,31.00
2025-12-11 22:43:52.039,WT901BLE67,90856446-A74E-F462-0152-8475C1E77738,1.330,-0.989,0.789,-4.761,-0.305,-26.978,-0.137,0.786,-126.244,-218.44,-218.44,-206.507,100,31.00
2025-12-11 22:43:52.044,WT901BLE67,90856446-A74E-F462-0152-8475C1E77738,1.330,-0.989,0.789,-4.761,-0.305,-26.978,-0.137,0.786,-126.244,-218.44,-218.44,-206.507,100,31.00
2025-12-11 22:43:52.049,WT901BLE67,90856446-A74E-F462-0152-8475C1E77738,1.330,-0.989,0.789,-4.761,-0.305,-26.978,-0.137,0.786,-126.244,-218.44,-218.44,-206.507,100,31.00
2025-12-11 22:43:52.052,WT901BLE67,90856446-A74E-F462-0152-8475C1E77738,1.401,-1.001,0.787,-4.272,0.122,-14.404,-0.093,0.791,-125.975,-218.44,-218.44,-206.507,100,31.00
2025-12-11 22:43:52.052,WT901BLE67,90856446-A74E-F462-0152-8475C1E77738,1.408,-1.010,0.790,2.502,-0.183,0.061,-0.077,0.775,-127.018,-218.44,-218.44,-206.507,100,31.00
2025-12-11 22:43:52.054,WT901BLE67,90856446-A74E-F462-0152-8475C1E77738,1.408,-1.010,0.790,2.502,-0.183,0.061,-0.077,0.775,-127.018,-218.44,-218.44,-206.507,100,31.00
2025-12-11 22:43:52.059,WT901BLE67,90856446-A74E-F462-0152-8475C1E77738,1.408,-1.010,0.790,2.502,-0.183,0.061,-0.077,0.775,-127.018,-218.44,-218.44,-206.507,100,31.00
2025-12-11 22:43:52.064,WT901BLE67,90856446-A74E-F462-0152-8475C1E77738,1.408,-1.010,0.790,2.502,-0.183,0.061,-0.077,0.775,-127.018,-218.44,-218.44,-206.507,100,31.00
2025-12-11 22:43:52.070,WT901BLE67,90856446-A74E-F462-0152-8475C1E77738,1.408,-1.010,0.790,2.502,-0.183,0.061,-0.077,0.775,-127.018,-218.44,-218.44,-206.507,100,31.00
2025-12-11 22:43:52.074,WT901BLE67,90856446-A74E-F462-0152-8475C1E77738,1.408,-1.010,0.790,2.502,-0.183,0.061,-0.077,0.775,-127.018,-218.44,-218.44,-206.507,100,31.00
2025-12-11 22:43:52.079,WT901BLE67,90856446-A74E-F462-0152-8475C1E77738,1.408,-1.010,0.790,2.502,-0.183,0.061,-0.077,0.775,-127.018,-218.44,-218.44,-206.507,100,31.00
2025-12-11 22:43:52.082,WT901BLE67,90856446-A74E-F462-0152-8475C1E77738,1.396,-1.296,0.824,5.981,0.122,5.493,-0.110,0.775,-127.018,-218.44,-218.44,-206.507,100,31.00
2025-12-11 22:43:52.082,WT901BLE67,90856446-A74E-F462-0152-8475C1E77738,1.401,-1.028,0.783,-0.427,-0.244,0.916,-0.077,0.764,-126.996,-218.44,-218.44,-206.507,100,31.00
2025-12-11 22:43:52.084,WT901BLE67,90856446-A74E-F462-0152-8475C1E77738,1.401,-1.028,0.783,-0.427,-0.244,0.916,-0.077,0.764,-126.996,-218.44,-218.44,-206.507,100,31.00
2025-12-11 22:43:52.089,WT901BLE67,90856446-A74E-F462-0152-8475C1E77738,1.401,-1.028,0.783,-0.427,-0.244,0.916,-0.077,0.764,-126.996,-218.44,-218.44,-206.507,100,31.00
2025-12-11 22:43:52.094,WT901BLE67,90856446-A74E-F462-0152-8475C1E77738,1.401,-1.028,0.783,-0.427,-0.244,0.916,-0.077,0.764,-126.996,-218.44,-218.44,-206.507,100,31.00
2025-12-11 22:43:52.099,WT901BLE67,90856446-A74E-F462-0152-8475C1E77738,1.401,-1.028,0.783,-0.427,-0.244,0.916,-0.077,0.764,-126.996,-218.44,-218.44,-206.507,100,31.00
2025-12-11 22:43:52.104,WT901BLE67,90856446-A74E-F462-0152-8475C1E77738,1.401,-1.028,0.783,-0.427,-0.244,0.916,-0.077,0.764,-126.996,-218.44,-218.44,-206.507,100,31.00
2025-12-11 22:43:52.109,WT901BLE67,90856446-A74E-F462-0152-8475C1E77738,1.401,-1.028,0.783,-0.427,-0.244,0.916,-0.077,0.764,-126.996,-218.44,-218.44,-206.507,100,31.00
2025-12-11 22:43:52.109,WT901BLE67,90856446-A74E-F462-0152-8475C1E77738,1.313,-1.024,0.792,0.122,-0.244,0.427,-0.077,0.769,-127.007,-218.44,-218.44,-206.507,100,31.00
2025-12-11 22:43:52.109,WT901BLE67,90856446-A74E-F462-0152-8475C1E77738,1.328,-1.053,0.767,-1.526,-1.465,53.528,-0.082,0.764,-125.447,-218.44,-218.44,-206.507,100,31.00
2025-12-11 22:43:52.114,WT901BLE67,90856446-A74E-F462-0152-8475C1E77738,1.328,-1.053,0.767,-1.526,-1.465,53.528,-0.082,0.764,-125.447,-218.44,-218.44,-206.507,100,31.00
2025-12-11 22:43:52.121,WT901BLE67,90856446-A74E-F462-0152-8475C1E77738,1.328,-1.053,0.767,-1.526,-1.465,53.528,-0.082,0.764,-125.447,-218.44,-218.44,-206.507,100,31.00
2025-12-11 22:43:52.124,WT901BLE67,90856446-A74E-F462-0152-8475C1E77738,1.328,-1.053,0.767,-1.526,-1.465,53.528,-0.082,0.764,-125.447,-218.44,-218.44,-206.507,100,31.00
2025-12-11 22:43:52.129,WT901BLE67,90856446-A74E-F462-0152-8475C1E77738,1.328,-1.053,0.767,-1.526,-1.465,53.528,-0.082,0.764,-125.447,-218.44,-218.44,-206.507,100,31.00
2025-12-11 22:43:52.134,WT901BLE67,90856446-A74E-F462-0152-8475C1E77738,1.328,-1.053,0.767,-1.526,-1.465,53.528,-0.082,0.764,-125.447,-218.44,-218.44,-206.507,100,31.00
2025-12-11 22:43:52.139,WT901BLE67,90856446-A74E-F462-0152-8475C1E77738,1.328,-1.053,0.767,-1.526,-1.465,53.528,-0.082,0.764,-125.447,-218.44,-218.44,-206.507,100,31.00
2025-12-11 22:43:52.144,WT901BLE67,90856446-A74E-F462-0152-8475C1E77738,1.328,-1.053,0.767,-1.526,-1.465,53.528,-0.082,0.764,-125.447,-218.44,-218.44,-206.507,100,31.00
2025-12-11 22:43:52.149,WT901BLE67,90856446-A74E-F462-0152-8475C1E77738,1.328,-1.053,0.767,-1.526,-1.465,53.528,-0.082,0.764,-125.447,-218.44,-218.44,-206.507,100,31.00
2025-12-11 22:43:52.154,WT901BLE67,90856446-A74E-F462-0152-8475C1E77738,1.328,-1.053,0.767,-1.526,-1.465,53.528,-0.082,0.764,-125.447,-218.44,-218.44,-206.507,100,31.00
2025-12-11 22:43:52.159,WT901BLE67,90856446-A74E-F462-0152-8475C1E77738,1.328,-1.053,0.767,-1.526,-1.465,53.528,-0.082,0.764,-125.447,-218.44,-218.44,-206.507,100,31.00
2025-12-11 22:43:52.164,WT901BLE67,90856446-A74E-F462-0152-8475C1E77738,1.328,-1.053,0.767,-1.526,-1.465,53.528,-0.082,0.764,-125.447,-218.44,-218.44,-206.507,100,31.00
2025-12-11 22:43:52.170,WT901BLE67,90856446-A74E-F462-0152-8475C1E77738,1.424,-1.035,0.797,-1.282,0.122,56.335,-0.082,0.764,-125.991,-218.44,-218.44,-206.507,100,31.00
2025-12-11 22:43:52.170,WT901BLE67,90856446-A74E-F462-0152-8475C1E77738,1.440,-1.024,0.796,-0.977,-0.549,33.447,-0.104,0.753,-123.739,-218.44,-218.44,-206.507,100,31.00
2025-12-11 22:43:52.171,WT901BLE67,90856446-A74E-F462-0152-8475C1E77738,1.440,-1.024,0.796,-0.977,-0.549,33.447,-0.104,0.753,-123.739,-218.44,-218.44,-206.507,100,31.00
2025-12-11 22:43:52.174,WT901BLE67,90856446-A74E-F462-0152-8475C1E77738,1.440,-1.024,0.796,-0.977,-0.549,33.447,-0.104,0.753,-123.739,-218.44,-218.44,-206.507,100,31.00
2025-12-11 22:43:52.179,WT901BLE67,90856446-A74E-F462-0152-8475C1E77738,1.440,-1.024,0.796,-0.977,-0.549,33.447,-0.104,0.753,-123.739,-218.44,-218.44,-206.507,100,31.00
2025-12-11 22:43:52.184,WT901BLE67,90856446-A74E-F462-0152-8475C1E77738,1.440,-1.024,0.796,-0.977,-0.549,33.447,-0.104,0.753,-123.739,-218.44,-218.44,-206.507,100,31.00
2025-12-11 22:43:52.189,WT901BLE67,90856446-A74E-F462-0152-8475C1E77738,1.440,-1.024,0.796,-0.977,-0.549,33.447,-0.104,0.753,-123.739,-218.44,-218.44,-206.507,100,31.00
2025-12-11 22:43:52.194,WT901BLE67,90856446-A74E-F462-0152-8475C1E77738,1.440,-1.024,0.796,-0.977,-0.549,33.447,-0.104,0.753,-123.739,-218.44,-218.44,-206.507,100,31.00
2025-12-11 22:43:52.199,WT901BLE67,90856446-A74E-F462-0152-8475C1E77738,1.440,-1.024,0.796,-0.977,-0.549,33.447,-0.104,0.753,-123.739,-218.44,-218.44,-206.507,100,31.00
2025-12-11 22:43:52.201,WT901BLE67,90856446-A74E-F462-0152-8475C1E77738,1.533,-1.009,0.792,-1.099,-0.671,36.377,-0.104,0.753,-124.085,-218.44,-218.44,-206.507,100,31.00
2025-12-11 22:43:52.202,WT901BLE67,90856446-A74E-F462-0152-8475C1E77738,1.446,-0.958,0.822,-22.095,-5.371,52.979,-0.445,0.703,-121.514,-218.44,-218.44,-206.507,100,31.00
2025-12-11 22:43:52.204,WT901BLE67,90856446-A74E-F462-0152-8475C1E77738,1.446,-0.958,0.822,-22.095,-5.371,52.979,-0.445,0.703,-121.514,-218.44,-218.44,-206.507,100,31.00
2025-12-11 22:43:52.209,WT901BLE67,90856446-A74E-F462-0152-8475C1E77738,1.446,-0.958,0.822,-22.095,-5.371,52.979,-0.445,0.703,-121.514,-218.44,-218.44,-206.507,100,31.00
2025-12-11 22:43:52.214,WT901BLE67,90856446-A74E-F462-0152-8475C1E77738,1.446,-0.958,0.822,-22.095,-5.371,52.979,-0.445,0.703,-121.514,-218.44,-218.44,-206.507,100,31.00
2025-12-11 22:43:52.221,WT901BLE67,90856446-A74E-F462-0152-8475C1E77738,1.446,-0.958,0.822,-22.095,-5.371,52.979,-0.445,0.703,-121.514,-218.44,-218.44,-206.507,100,31.00
2025-12-11 22:43:52.224,WT901BLE67,90856446-A74E-F462-0152-8475C1E77738,1.446,-0.958,0.822,-22.095,-5.371,52.979,-0.445,0.703,-121.514,-218.44,-218.44,-206.507,100,31.00
2025-12-11 22:43:52.228,WT901BLE67,90856446-A74E-F462-0152-8475C1E77738,1.409,-0.995,0.796,-11.353,-0.305,73.792,-0.236,0.758,-122.069,-218.44,-218.44,-206.507,100,31.00
2025-12-11 22:43:52.229,WT901BLE67,90856446-A74E-F462-0152-8475C1E77738,1.402,-1.052,1.103,-75.806,-36.438,85.449,-3.043,-1.604,-119.344,-218.44,-218.44,-206.507,100,31.00
2025-12-11 22:43:52.229,WT901BLE67,90856446-A74E-F462-0152-8475C1E77738,1.402,-1.052,1.103,-75.806,-36.438,85.449,-3.043,-1.604,-119.344,-218.44,-218.44,-206.507,100,31.00
2025-12-11 22:43:52.234,WT901BLE67,90856446-A74E-F462-0152-8475C1E77738,1.402,-1.052,1.103,-75.806,-36.438,85.449,-3.043,-1.604,-119.344,-218.44,-218.44,-206.507,100,31.00
2025-12-11 22:43:52.239,WT901BLE67,90856446-A74E-F462-0152-8475C1E77738,1.402,-1.052,1.103,-75.806,-36.438,85.449,-3.043,-1.604,-119.344,-218.44,-218.44,-206.507,100,31.00
2025-12-11 22:43:52.244,WT901BLE67,90856446-A74E-F462-0152-8475C1E77738,1.402,-1.052,1.103,-75.806,-36.438,85.449,-3.043,-1.604,-119.344,-218.44,-218.44,-206.507,100,31.00
2025-12-11 22:43:52.249,WT901BLE67,90856446-A74E-F462-0152-8475C1E77738,1.402,-1.052,1.103,-75.806,-36.438,85.449,-3.043,-1.604,-119.344,-218.44,-218.44,-206.507,100,31.00
2025-12-11 22:43:52.254,WT901BLE67,90856446-A74E-F462-0152-8475C1E77738,1.402,-1.052,1.103,-75.806,-36.438,85.449,-3.043,-1.604,-119.344,-218.44,-218.44,-206.507,100,31.00
2025-12-11 22:43:52.259,WT901BLE67,90856446-A74E-F462-0152-8475C1E77738,1.402,-1.052,1.103,-75.806,-36.438,85.449,-3.043,-1.604,-119.344,-218.44,-218.44,-206.507,100,31.00
2025-12-11 22:43:52.264,WT901BLE67,90856446-A74E-F462-0152-8475C1E77738,1.402,-1.052,1.103,-75.806,-36.438,85.449,-3.043,-1.604,-119.344,-218.44,-218.44,-206.507,100,31.00
2025-12-11 22:43:52.270,WT901BLE67,90856446-A74E-F462-0152-8475C1E77738,1.402,-1.052,1.103,-75.806,-36.438,85.449,-3.043,-1.604,-119.344,-218.44,-218.44,-206.507,100,31.00
2025-12-11 22:43:52.274,WT901BLE67,90856446-A74E-F462-0152-8475C1E77738,1.402,-1.052,1.103,-75.806,-36.438,85.449,-3.043,-1.604,-119.344,-218.44,-218.44,-206.507,100,31.00
2025-12-11 22:43:52.279,WT901BLE67,90856446-A74E-F462-0152-8475C1E77738,1.402,-1.052,1.103,-75.806,-36.438,85.449,-3.043,-1.604,-119.344,-218.44,-218.44,-206.507,100,31.00
2025-12-11 22:43:52.284,WT901BLE67,90856446-A74E-F462-0152-8475C1E77738,1.402,-1.052,1.103,-75.806,-36.438,85.449,-3.043,-1.604,-119.344,-218.44,-218.44,-206.507,100,31.00
2025-12-11 22:43:52.289,WT901BLE67,90856446-A74E-F462-0152-8475C1E77738,1.636,-1.167,1.242,-45.837,-47.791,51.514,-2.280,-1.274,-120.207,-218.44,-218.44,-206.507,100,31.00
2025-12-11 22:43:52.289,WT901BLE67,90856446-A74E-F462-0152-8475C1E77738,1.659,-0.976,0.969,-82.581,-21.423,25.208,-6.405,-2.373,-116.735,-218.44,-218.44,-206.507,100,31.00
2025-12-11 22:43:52.289,WT901BLE67,90856446-A74E-F462-0152-8475C1E77738,1.659,-0.976,0.969,-82.581,-21.423,25.208,-6.405,-2.373,-116.735,-218.44,-218.44,-206.507,100,31.00
2025-12-11 22:43:52.294,WT901BLE67,90856446-A74E-F462-0152-8475C1E77738,1.659,-0.976,0.969,-82.581,-21.423,25.208,-6.405,-2.373,-116.735,-218.44,-218.44,-206.507,100,31.00
2025-12-11 22:43:52.299,WT901BLE67,90856446-A74E-F462-0152-8475C1E77738,1.659,-0.976,0.969,-82.581,-21.423,25.208,-6.405,-2.373,-116.735,-218.44,-218.44,-206.507,100,31.00
2025-12-11 22:43:52.304,WT901BLE67,90856446-A74E-F462-0152-8475C1E77738,1.659,-0.976,0.969,-82.581,-21.423,25.208,-6.405,-2.373,-116.735,-218.44,-218.44,-206.507,100,31.00
2025-12-11 22:43:52.309,WT901BLE67,90856446-A74E-F462-0152-8475C1E77738,1.659,-0.976,0.969,-82.581,-21.423,25.208,-6.405,-2.373,-116.735,-218.44,-218.44,-206.507,100,31.00
2025-12-11 22:43:52.314,WT901BLE67,90856446-A74E-F462-0152-8475C1E77738,1.659,-0.976,0.969,-82.581,-21.423,25.208,-6.405,-2.373,-116.735,-218.44,-218.44,-206.507,100,31.00
2025-12-11 22:43:52.320,WT901BLE67,90856446-A74E-F462-0152-8475C1E77738,1.518,-0.927,0.954,-81.482,-22.034,52.246,-5.570,-2.192,-117.032,-218.44,-218.44,-206.507,100,31.00
2025-12-11 22:43:52.320,WT901BLE67,90856446-A74E-F462-0152-8475C1E77738,1.518,-0.927,0.954,-81.482,-22.034,52.246,-5.570,-2.192,-117.032,-218.44,-218.44,-206.507,100,31.00
2025-12-11 22:43:52.324,WT901BLE67,90856446-A74E-F462-0152-8475C1E77738,1.518,-0.927,0.954,-81.482,-22.034,52.246,-5.570,-2.192,-117.032,-218.44,-218.44,-206.507,100,31.00
2025-12-11 22:43:52.329,WT901BLE67,90856446-A74E-F462-0152-8475C1E77738,1.518,-0.927,0.954,-81.482,-22.034,52.246,-5.570,-2.192,-117.032,-218.44,-218.44,-206.507,100,31.00
2025-12-11 22:43:52.334,WT901BLE67,90856446-A74E-F462-0152-8475C1E77738,1.518,-0.927,0.954,-81.482,-22.034,52.246,-5.570,-2.192,-117.032,-218.44,-218.44,-206.507,100,31.00
2025-12-11 22:43:52.339,WT901BLE67,90856446-A74E-F462-0152-8475C1E77738,1.518,-0.927,0.954,-81.482,-22.034,52.246,-5.570,-2.192,-117.032,-218.44,-218.44,-206.507,100,31.00
2025-12-11 22:43:52.344,WT901BLE67,90856446-A74E-F462-0152-8475C1E77738,1.518,-0.927,0.954,-81.482,-22.034,52.246,-5.570,-2.192,-117.032,-218.44,-218.44,-206.507,100,31.00
2025-12-11 22:43:52.348,WT901BLE67,90856446-A74E-F462-0152-8475C1E77738,1.315,-1.058,0.713,-82.825,-8.301,41.382,-9.745,-2.565,-115.032,-218.44,-218.44,-206.507,100,31.00
2025-12-11 22:43:52.348,WT901BLE67,90856446-A74E-F462-0152-8475C1E77738,1.397,-1.255,0.730,-83.740,-30.823,73.608,-13.090,-3.142,-113.038,-218.44,-218.44,-206.507,100,31.00
2025-12-11 22:43:52.349,WT901BLE67,90856446-A74E-F462-0152-8475C1E77738,1.397,-1.255,0.730,-83.740,-30.823,73.608,-13.090,-3.142,-113.038,-218.44,-218.44,-206.507,100,31.00
2025-12-11 22:43:52.354,WT901BLE67,90856446-A74E-F462-0152-8475C1E77738,1.397,-1.255,0.730,-83.740,-30.823,73.608,-13.090,-3.142,-113.038,-218.44,-218.44,-206.507,100,31.00
2025-12-11 22:43:52.359,WT901BLE67,90856446-A74E-F462-0152-8475C1E77738,1.397,-1.255,0.730,-83.740,-30.823,73.608,-13.090,-3.142,-113.038,-218.44,-218.44,-206.507,100,31.00
2025-12-11 22:43:52.364,WT901BLE67,90856446-A74E-F462-0152-8475C1E77738,1.397,-1.255,0.730,-83.740,-30.823,73.608,-13.090,-3.142,-113.038,-218.44,-218.44,-206.507,100,31.00
2025-12-11 22:43:52.370,WT901BLE67,90856446-A74E-F462-0152-8475C1E77738,1.397,-1.255,0.730,-83.740,-30.823,73.608,-13.090,-3.142,-113.038,-218.44,-218.44,-206.507,100,31.00
2025-12-11 22:43:52.374,WT901BLE67,90856446-A74E-F462-0152-8475C1E77738,1.397,-1.255,0.730,-83.740,-30.823,73.608,-13.090,-3.142,-113.038,-218.44,-218.44,-206.507,100,31.00
2025-12-11 22:43:52.379,WT901BLE67,90856446-A74E-F462-0152-8475C1E77738,1.397,-1.255,0.730,-83.740,-30.823,73.608,-13.090,-3.142,-113.038,-218.44,-218.44,-206.507,100,31.00
2025-12-11 22:43:52.384,WT901BLE67,90856446-A74E-F462-0152-8475C1E77738,1.397,-1.255,0.730,-83.740,-30.823,73.608,-13.090,-3.142,-113.038,-218.44,-218.44,-206.507,100,31.00
2025-12-11 22:43:52.389,WT901BLE67,90856446-A74E-F462-0152-8475C1E77738,1.397,-1.255,0.730,-83.740,-30.823,73.608,-13.090,-3.142,-113.038,-218.44,-218.44,-206.507,100,31.00
2025-12-11 22:43:52.394,WT901BLE67,90856446-A74E-F462-0152-8475C1E77738,1.397,-1.255,0.730,-83.740,-30.823,73.608,-13.090,-3.142,-113.038,-218.44,-218.44,-206.507,100,31.00
2025-12-11 22:43:52.399,WT901BLE67,90856446-A74E-F462-0152-8475C1E77738,1.397,-1.255,0.730,-83.740,-30.823,73.608,-13.090,-3.142,-113.038,-218.44,-218.44,-206.507,100,31.00
2025-12-11 22:43:52.404,WT901BLE67,90856446-A74E-F462-0152-8475C1E77738,1.397,-1.255,0.730,-83.740,-30.823,73.608,-13.090,-3.142,-113.038,-218.44,-218.44,-206.507,100,31.00
2025-12-11 22:43:52.408,WT901BLE67,90856446-A74E-F462-0152-8475C1E77738,1.398,-1.192,0.733,-84.290,-27.161,51.819,-12.206,-3.016,-113.818,-218.44,-218.44,-206.507,100,31.00
2025-12-11 22:43:52.408,WT901BLE67,90856446-A74E-F462-0152-8475C1E77738,1.409,-1.153,0.714,-80.627,71.411,79.590,-16.617,-0.615,-109.731,-218.44,-218.44,-206.507,100,31.00
2025-12-11 22:43:52.409,WT901BLE67,90856446-A74E-F462-0152-8475C1E77738,1.409,-1.153,0.714,-80.627,71.411,79.590,-16.617,-0.615,-109.731,-218.44,-218.44,-206.507,100,31.00
2025-12-11 22:43:52.414,WT901BLE67,90856446-A74E-F462-0152-8475C1E77738,1.409,-1.153,0.714,-80.627,71.411,79.590,-16.617,-0.615,-109.731,-218.44,-218.44,-206.507,100,31.00
2025-12-11 22:43:52.421,WT901BLE67,90856446-A74E-F462-0152-8475C1E77738,1.409,-1.153,0.714,-80.627,71.411,79.590,-16.617,-0.615,-109.731,-218.44,-218.44,-206.507,100,31.00
2025-12-11 22:43:52.424,WT901BLE67,90856446-A74E-F462-0152-8475C1E77738,1.409,-1.153,0.714,-80.627,71.411,79.590,-16.617,-0.615,-109.731,-218.44,-218.44,-206.507,100,31.00
2025-12-11 22:43:52.429,WT901BLE67,90856446-A74E-F462-0152-8475C1E77738,1.409,-1.153,0.714,-80.627,71.411,79.590,-16.617,-0.615,-109.731,-218.44,-218.44,-206.507,100,31.00
2025-12-11 22:43:52.434,WT901BLE67,90856446-A74E-F462-0152-8475C1E77738,1.409,-1.153,0.714,-80.627,71.411,79.590,-16.617,-0.615,-109.731,-218.44,-218.44,-206.507,100,31.00
2025-12-11 22:43:52.439,WT901BLE67,90856446-A74E-F462-0152-8475C1E77738,1.409,-1.153,0.714,-80.627,71.411,79.590,-16.617,-0.615,-109.731,-218.44,-218.44,-206.507,100,31.00
2025-12-11 22:43:52.442,WT901BLE67,90856446-A74E-F462-0152-8475C1E77738,1.840,-1.187,0.665,-95.032,48.096,79.529,-15.787,-1.500,-110.292,-218.44,-218.44,-206.507,100,31.00
2025-12-11 22:43:52.442,WT901BLE67,90856446-A74E-F462-0152-8475C1E77738,1.073,-1.215,0.676,-87.769,34.912,4.333,-19.896,3.691,-109.072,-218.44,-218.44,-206.507,100,31.00
2025-12-11 22:43:52.444,WT901BLE67,90856446-A74E-F462-0152-8475C1E77738,1.073,-1.215,0.676,-87.769,34.912,4.333,-19.896,3.691,-109.072,-218.44,-218.44,-206.507,100,31.00
2025-12-11 22:43:52.449,WT901BLE67,90856446-A74E-F462-0152-8475C1E77738,1.073,-1.215,0.676,-87.769,34.912,4.333,-19.896,3.691,-109.072,-218.44,-218.44,-206.507,100,31.00
2025-12-11 22:43:52.454,WT901BLE67,90856446-A74E-F462-0152-8475C1E77738,1.073,-1.215,0.676,-87.769,34.912,4.333,-19.896,3.691,-109.072,-218.44,-218.44,-206.507,100,31.00
2025-12-11 22:43:52.459,WT901BLE67,90856446-A74E-F462-0152-8475C1E77738,1.073,-1.215,0.676,-87.769,34.912,4.333,-19.896,3.691,-109.072,-218.44,-218.44,-206.507,100,31.00
2025-12-11 22:43:52.464,WT901BLE67,90856446-A74E-F462-0152-8475C1E77738,1.073,-1.215,0.676,-87.769,34.912,4.333,-19.896,3.691,-109.072,-218.44,-218.44,-206.507,100,31.00
2025-12-11 22:43:52.470,WT901BLE67,90856446-A74E-F462-0152-8475C1E77738,1.500,-1.323,0.642,-103.882,114.868,71.045,-18.990,3.186,-109.100,-218.44,-218.44,-206.507,100,31.00
2025-12-11 22:43:52.471,WT901BLE67,90856446-A74E-F462-0152-8475C1E77738,1.573,-1.392,0.858,-49.866,-9.399,-11.780,-23.357,3.307,-107.721,-218.44,-218.44,-206.507,100,31.00
2025-12-11 22:43:52.471,WT901BLE67,90856446-A74E-F462-0152-8475C1E77738,1.573,-1.392,0.858,-49.866,-9.399,-11.780,-23.357,3.307,-107.721,-218.44,-218.44,-206.507,100,31.00
2025-12-11 22:43:52.474,WT901BLE67,90856446-A74E-F462-0152-8475C1E77738,1.573,-1.392,0.858,-49.866,-9.399,-11.780,-23.357,3.307,-107.721,-218.44,-218.44,-206.507,100,31.00
2025-12-11 22:43:52.479,WT901BLE67,90856446-A74E-F462-0152-8475C1E77738,1.573,-1.392,0.858,-49.866,-9.399,-11.780,-23.357,3.307,-107.721,-218.44,-218.44,-206.507,100,31.00
2025-12-11 22:43:52.484,WT901BLE67,90856446-A74E-F462-0152-8475C1E77738,1.573,-1.392,0.858,-49.866,-9.399,-11.780,-23.357,3.307,-107.721,-218.44,-218.44,-206.507,100,31.00
2025-12-11 22:43:52.489,WT901BLE67,90856446-A74E-F462-0152-8475C1E77738,1.573,-1.392,0.858,-49.866,-9.399,-11.780,-23.357,3.307,-107.721,-218.44,-218.44,-206.507,100,31.00
2025-12-11 22:43:52.494,WT901BLE67,90856446-A74E-F462-0152-8475C1E77738,1.573,-1.392,0.858,-49.866,-9.399,-11.780,-23.357,3.307,-107.721,-218.44,-218.44,-206.507,100,31.00
2025-12-11 22:43:52.499,WT901BLE67,90856446-A74E-F462-0152-8475C1E77738,1.573,-1.392,0.858,-49.866,-9.399,-11.780,-23.357,3.307,-107.721,-218.44,-218.44,-206.507,100,31.00
2025-12-11 22:43:52.504,WT901BLE67,90856446-A74E-F462-0152-8475C1E77738,1.573,-1.392,0.858,-49.866,-9.399,-11.780,-23.357,3.307,-107.721,-218.44,-218.44,-206.507,100,31.00
2025-12-11 22:43:52.509,WT901BLE67,90856446-A74E-F462-0152-8475C1E77738,1.573,-1.392,0.858,-49.866,-9.399,-11.780,-23.357,3.307,-107.721,-218.44,-218.44,-206.507,100,31.00
2025-12-11 22:43:52.514,WT901BLE67,90856446-A74E-F462-0152-8475C1E77738,1.573,-1.392,0.858,-49.866,-9.399,-11.780,-23.357,3.307,-107.721,-218.44,-218.44,-206.507,100,31.00
2025-12-11 22:43:52.520,WT901BLE67,90856446-A74E-F462-0152-8475C1E77738,1.573,-1.392,0.858,-49.866,-9.399,-11.780,-23.357,3.307,-107.721,-218.44,-218.44,-206.507,100,31.00
2025-12-11 22:43:52.524,WT901BLE67,90856446-A74E-F462-0152-8475C1E77738,1.573,-1.392,0.858,-49.866,-9.399,-11.780,-23.357,3.307,-107.721,-218.44,-218.44,-206.507,100,31.00
2025-12-11 22:43:52.527,WT901BLE67,90856446-A74E-F462-0152-8475C1E77738,1.264,-1.412,0.711,-75.073,-44.250,15.625,-22.824,3.450,-107.677,-218.44,-218.44,-206.507,100,31.00
2025-12-11 22:43:52.528,WT901BLE67,90856446-A74E-F462-0152-8475C1E77738,1.196,-1.473,0.706,84.961,198.853,-72.205,-22.972,8.575,-111.654,-218.44,-218.44,-206.507,100,31.00
2025-12-11 22:43:52.529,WT901BLE67,90856446-A74E-F462-0152-8475C1E77738,1.196,-1.473,0.706,84.961,198.853,-72.205,-22.972,8.575,-111.654,-218.44,-218.44,-206.507,100,31.00
2025-12-11 22:43:52.534,WT901BLE67,90856446-A74E-F462-0152-8475C1E77738,1.196,-1.473,0.706,84.961,198.853,-72.205,-22.972,8.575,-111.654,-218.44,-218.44,-206.507,100,31.00
2025-12-11 22:43:52.539,WT901BLE67,90856446-A74E-F462-0152-8475C1E77738,1.196,-1.473,0.706,84.961,198.853,-72.205,-22.972,8.575,-111.654,-218.44,-218.44,-206.507,100,31.00
2025-12-11 22:43:52.544,WT901BLE67,90856446-A74E-F462-0152-8475C1E77738,1.196,-1.473,0.706,84.961,198.853,-72.205,-22.972,8.575,-111.654,-218.44,-218.44,-206.507,100,31.00
2025-12-11 22:43:52.549,WT901BLE67,90856446-A74E-F462-0152-8475C1E77738,1.196,-1.473,0.706,84.961,198.853,-72.205,-22.972,8.575,-111.654,-218.44,-218.44,-206.507,100,31.00
2025-12-11 22:43:52.554,WT901BLE67,90856446-A74E-F462-0152-8475C1E77738,1.196,-1.473,0.706,84.961,198.853,-72.205,-22.972,8.575,-111.654,-218.44,-218.44,-206.507,100,31.00
2025-12-11 22:43:52.559,WT901BLE67,90856446-A74E-F462-0152-8475C1E77738,1.196,-1.473,0.706,84.961,198.853,-72.205,-22.972,8.575,-111.654,-218.44,-218.44,-206.507,100,31.00
2025-12-11 22:43:52.562,WT901BLE67,90856446-A74E-F462-0152-8475C1E77738,0.891,-1.410,0.777,16.357,203.552,-46.936,-23.643,6.987,-110.292,-218.44,-218.44,-206.507,100,31.00
2025-12-11 22:43:52.562,WT901BLE67,90856446-A74E-F462-0152-8475C1E77738,1.119,-1.192,1.049,40.283,-91.858,-1.526,-17.067,12.931,-109.435,-218.44,-218.44,-206.507,100,31.00
2025-12-11 22:43:52.564,WT901BLE67,90856446-A74E-F462-0152-8475C1E77738,1.119,-1.192,1.049,40.283,-91.858,-1.526,-17.067,12.931,-109.435,-218.44,-218.44,-206.507,100,31.00
2025-12-11 22:43:52.571,WT901BLE67,90856446-A74E-F462-0152-8475C1E77738,1.119,-1.192,1.049,40.283,-91.858,-1.526,-17.067,12.931,-109.435,-218.44,-218.44,-206.507,100,31.00
2025-12-11 22:43:52.574,WT901BLE67,90856446-A74E-F462-0152-8475C1E77738,1.119,-1.192,1.049,40.283,-91.858,-1.526,-17.067,12.931,-109.435,-218.44,-218.44,-206.507,100,31.00
2025-12-11 22:43:52.579,WT901BLE67,90856446-A74E-F462-0152-8475C1E77738,1.119,-1.192,1.049,40.283,-91.858,-1.526,-17.067,12.931,-109.435,-218.44,-218.44,-206.507,100,31.00
2025-12-11 22:43:52.584,WT901BLE67,90856446-A74E-F462-0152-8475C1E77738,1.119,-1.192,1.049,40.283,-91.858,-1.526,-17.067,12.931,-109.435,-218.44,-218.44,-206.507,100,31.00
2025-12-11 22:43:52.589,WT901BLE67,90856446-A74E-F462-0152-8475C1E77738,1.119,-1.192,1.049,40.283,-91.858,-1.526,-17.067,12.931,-109.435,-218.44,-218.44,-206.507,100,31.00
2025-12-11 22:43:52.594,WT901BLE67,90856446-A74E-F462-0152-8475C1E77738,1.119,-1.192,1.049,40.283,-91.858,-1.526,-17.067,12.931,-109.435,-218.44,-218.44,-206.507,100,31.00
2025-12-11 22:43:52.599,WT901BLE67,90856446-A74E-F462-0152-8475C1E77738,1.119,-1.192,1.049,40.283,-91.858,-1.526,-17.067,12.931,-109.435,-218.44,-218.44,-206.507,100,31.00
2025-12-11 22:43:52.604,WT901BLE67,90856446-A74E-F462-0152-8475C1E77738,1.119,-1.192,1.049,40.283,-91.858,-1.526,-17.067,12.931,-109.435,-218.44,-218.44,-206.507,100,31.00
2025-12-11 22:43:52.609,WT901BLE67,90856446-A74E-F462-0152-8475C1E77738,1.119,-1.192,1.049,40.283,-91.858,-1.526,-17.067,12.931,-109.435,-218.44,-218.44,-206.507,100,31.00
2025-12-11 22:43:52.614,WT901BLE67,90856446-A74E-F462-0152-8475C1E77738,1.119,-1.192,1.049,40.283,-91.858,-1.526,-17.067,12.931,-109.435,-218.44,-218.44,-206.507,100,31.00
2025-12-11 22:43:52.620,WT901BLE67,90856446-A74E-F462-0152-8475C1E77738,0.978,-0.706,0.812,75.073,-29.236,105.225,-17.578,13.799,-109.737,-218.44,-218.44,-206.507,100,31.00
2025-12-11 22:43:52.621,WT901BLE67,90856446-A74E-F462-0152-8475C1E77738,0.799,-1.003,1.006,25.696,-330.200,-138.977,-17.073,3.032,-109.308,-218.44,-218.44,-206.507,100,31.00
2025-12-11 22:43:52.621,WT901BLE67,90856446-A74E-F462-0152-8475C1E77738,0.799,-1.003,1.006,25.696,-330.200,-138.977,-17.073,3.032,-109.308,-218.44,-218.44,-206.507,100,31.00
2025-12-11 22:43:52.624,WT901BLE67,90856446-A74E-F462-0152-8475C1E77738,0.799,-1.003,1.006,25.696,-330.200,-138.977,-17.073,3.032,-109.308,-218.44,-218.44,-206.507,100,31.00
2025-12-11 22:43:52.629,WT901BLE67,90856446-A74E-F462-0152-8475C1E77738,0.799,-1.003,1.006,25.696,-330.200,-138.977,-17.073,3.032,-109.308,-218.44,-218.44,-206.507,100,31.00
2025-12-11 22:43:52.634,WT901BLE67,90856446-A74E-F462-0152-8475C1E77738,0.799,-1.003,1.006,25.696,-330.200,-138.977,-17.073,3.032,-109.308,-218.44,-218.44,-206.507,100,31.00
2025-12-11 22:43:52.639,WT901BLE67,90856446-A74E-F462-0152-8475C1E77738,0.799,-1.003,1.006,25.696,-330.200,-138.977,-17.073,3.032,-109.308,-218.44,-218.44,-206.507,100,31.00
2025-12-11 22:43:52.644,WT901BLE67,90856446-A74E-F462-0152-8475C1E77738,0.799,-1.003,1.006,25.696,-330.200,-138.977,-17.073,3.032,-109.308,-218.44,-218.44,-206.507,100,31.00
2025-12-11 22:43:52.648,WT901BLE67,90856446-A74E-F462-0152-8475C1E77738,1.129,-0.971,1.080,1.343,-279.663,-85.876,-17.298,6.548,-108.968,-218.44,-218.44,-206.507,100,31.00
2025-12-11 22:43:52.648,WT901BLE67,90856446-A74E-F462-0152-8475C1E77738,0.801,-1.197,0.875,-30.640,-135.559,-226.440,-16.408,-7.262,-114.944,-218.44,-218.44,-206.507,100,31.00
2025-12-11 22:43:52.649,WT901BLE67,90856446-A74E-F462-0152-8475C1E77738,0.801,-1.197,0.875,-30.640,-135.559,-226.440,-16.408,-7.262,-114.944,-218.44,-218.44,-206.507,100,31.00
2025-12-11 22:43:52.655,WT901BLE67,90856446-A74E-F462-0152-8475C1E77738,0.801,-1.197,0.875,-30.640,-135.559,-226.440,-16.408,-7.262,-114.944,-218.44,-218.44,-206.507,100,31.00
2025-12-11 22:43:52.659,WT901BLE67,90856446-A74E-F462-0152-8475C1E77738,0.801,-1.197,0.875,-30.640,-135.559,-226.440,-16.408,-7.262,-114.944,-218.44,-218.44,-206.507,100,31.00
2025-12-11 22:43:52.664,WT901BLE67,90856446-A74E-F462-0152-8475C1E77738,0.801,-1.197,0.875,-30.640,-135.559,-226.440,-16.408,-7.262,-114.944,-218.44,-218.44,-206.507,100,31.00
2025-12-11 22:43:52.670,WT901BLE67,90856446-A74E-F462-0152-8475C1E77738,0.801,-1.197,0.875,-30.640,-135.559,-226.440,-16.408,-7.262,-114.944,-218.44,-218.44,-206.507,100,31.00
2025-12-11 22:43:52.674,WT901BLE67,90856446-A74E-F462-0152-8475C1E77738,0.801,-1.197,0.875,-30.640,-135.559,-226.440,-16.408,-7.262,-114.944,-218.44,-218.44,-206.507,100,31.00
2025-12-11 22:43:52.678,WT901BLE67,90856446-A74E-F462-0152-8475C1E77738,0.953,-1.229,1.097,18.127,-123.779,-209.045,-16.337,-5.378,-113.176,-218.44,-218.44,-206.507,100,31.00
2025-12-11 22:43:52.678,WT901BLE67,90856446-A74E-F462-0152-8475C1E77738,1.868,-0.771,1.243,123.291,-234.619,-78.247,-16.842,-17.062,-117.208,-218.44,-218.44,-206.507,100,31.00
2025-12-11 22:43:52.679,WT901BLE67,90856446-A74E-F462-0152-8475C1E77738,1.868,-0.771,1.243,123.291,-234.619,-78.247,-16.842,-17.062,-117.208,-218.44,-218.44,-206.507,100,31.00
2025-12-11 22:43:52.684,WT901BLE67,90856446-A74E-F462-0152-8475C1E77738,1.868,-0.771,1.243,123.291,-234.619,-78.247,-16.842,-17.062,-117.208,-218.44,-218.44,-206.507,100,31.00
2025-12-11 22:43:52.689,WT901BLE67,90856446-A74E-F462-0152-8475C1E77738,1.868,-0.771,1.243,123.291,-234.619,-78.247,-16.842,-17.062,-117.208,-218.44,-218.44,-206.507,100,31.00
2025-12-11 22:43:52.694,WT901BLE67,90856446-A74E-F462-0152-8475C1E77738,1.868,-0.771,1.243,123.291,-234.619,-78.247,-16.842,-17.062,-117.208,-218.44,-218.44,-206.507,100,31.00
2025-12-11 22:43:52.699,WT901BLE67,90856446-A74E-F462-0152-8475C1E77738,1.868,-0.771,1.243,123.291,-234.619,-78.247,-16.842,-17.062,-117.208,-218.44,-218.44,-206.507,100,31.00
2025-12-11 22:43:52.704,WT901BLE67,90856446-A74E-F462-0152-8475C1E77738,1.868,-0.771,1.243,123.291,-234.619,-78.247,-16.842,-17.062,-117.208,-218.44,-218.44,-206.507,100,31.00
2025-12-11 22:43:52.709,WT901BLE67,90856446-A74E-F462-0152-8475C1E77738,1.868,-0.771,1.243,123.291,-234.619,-78.247,-16.842,-17.062,-117.208,-218.44,-218.44,-206.507,100,31.00
2025-12-11 22:43:52.714,WT901BLE67,90856446-A74E-F462-0152-8475C1E77738,1.868,-0.771,1.243,123.291,-234.619,-78.247,-16.842,-17.062,-117.208,-218.44,-218.44,-206.507,100,31.00
2025-12-11 22:43:52.720,WT901BLE67,90856446-A74E-F462-0152-8475C1E77738,1.868,-0.771,1.243,123.291,-234.619,-78.247,-16.842,-17.062,-117.208,-218.44,-218.44,-206.507,100,31.00
2025-12-11 22:43:52.724,WT901BLE67,90856446-A74E-F462-0152-8475C1E77738,1.868,-0.771,1.243,123.291,-234.619,-78.247,-16.842,-17.062,-117.208,-218.44,-218.44,-206.507,100,31.00
2025-12-11 22:43:52.729,WT901BLE67,90856446-A74E-F462-0152-8475C1E77738,1.868,-0.771,1.243,123.291,-234.619,-78.247,-16.842,-17.062,-117.208,-218.44,-218.44,-206.507,100,31.00
2025-12-11 22:43:52.734,WT901BLE67,90856446-A74E-F462-0152-8475C1E77738,1.868,-0.771,1.243,123.291,-234.619,-78.247,-16.842,-17.062,-117.208,-218.44,-218.44,-206.507,100,31.00
2025-12-11 22:43:52.739,WT901BLE67,90856446-A74E-F462-0152-8475C1E77738,1.547,-1.334,0.110,-54.321,-354.675,-31.372,-17.704,-14.348,-117.345,-218.44,-218.44,-206.507,100,31.00
2025-12-11 22:43:52.739,WT901BLE67,90856446-A74E-F462-0152-8475C1E77738,1.430,-0.780,1.162,28.198,-149.780,-165.771,-15.436,-26.653,-119.388,-218.44,-218.44,-206.507,100,31.00
2025-12-11 22:43:52.739,WT901BLE67,90856446-A74E-F462-0152-8475C1E77738,1.430,-0.780,1.162,28.198,-149.780,-165.771,-15.436,-26.653,-119.388,-218.44,-218.44,-206.507,100,31.00
2025-12-11 22:43:52.744,WT901BLE67,90856446-A74E-F462-0152-8475C1E77738,1.430,-0.780,1.162,28.198,-149.780,-165.771,-15.436,-26.653,-119.388,-218.44,-218.44,-206.507,100,31.00
2025-12-11 22:43:52.749,WT901BLE67,90856446-A74E-F462-0152-8475C1E77738,1.430,-0.780,1.162,28.198,-149.780,-165.771,-15.436,-26.653,-119.388,-218.44,-218.44,-206.507,100,31.00
2025-12-11 22:43:52.754,WT901BLE67,90856446-A74E-F462-0152-8475C1E77738,1.430,-0.780,1.162,28.198,-149.780,-165.771,-15.436,-26.653,-119.388,-218.44,-218.44,-206.507,100,31.00
2025-12-11 22:43:52.759,WT901BLE67,90856446-A74E-F462-0152-8475C1E77738,1.430,-0.780,1.162,28.198,-149.780,-165.771,-15.436,-26.653,-119.388,-218.44,-218.44,-206.507,100,31.00
2025-12-11 22:43:52.764,WT901BLE67,90856446-A74E-F462-0152-8475C1E77738,1.430,-0.780,1.162,28.198,-149.780,-165.771,-15.436,-26.653,-119.388,-218.44,-218.44,-206.507,100,31.00
2025-12-11 22:43:52.768,WT901BLE67,90856446-A74E-F462-0152-8475C1E77738,1.575,-0.667,1.047,13.550,-243.469,-150.269,-16.271,-24.703,-118.092,-218.44,-218.44,-206.507,100,31.00
2025-12-11 22:43:52.768,WT901BLE67,90856446-A74E-F462-0152-8475C1E77738,1.687,-0.666,0.650,20.874,188.354,-136.780,-10.783,-24.994,-126.843,-218.44,-218.44,-206.507,100,31.00
2025-12-11 22:43:52.771,WT901BLE67,90856446-A74E-F462-0152-8475C1E77738,1.687,-0.666,0.650,20.874,188.354,-136.780,-10.783,-24.994,-126.843,-218.44,-218.44,-206.507,100,31.00
2025-12-11 22:43:52.774,WT901BLE67,90856446-A74E-F462-0152-8475C1E77738,1.687,-0.666,0.650,20.874,188.354,-136.780,-10.783,-24.994,-126.843,-218.44,-218.44,-206.507,100,31.00
2025-12-11 22:43:52.779,WT901BLE67,90856446-A74E-F462-0152-8475C1E77738,1.687,-0.666,0.650,20.874,188.354,-136.780,-10.783,-24.994,-126.843,-218.44,-218.44,-206.507,100,31.00
2025-12-11 22:43:52.784,WT901BLE67,90856446-A74E-F462-0152-8475C1E77738,1.687,-0.666,0.650,20.874,188.354,-136.780,-10.783,-24.994,-126.843,-218.44,-218.44,-206.507,100,31.00
2025-12-11 22:43:52.789,WT901BLE67,90856446-A74E-F462-0152-8475C1E77738,1.687,-0.666,0.650,20.874,188.354,-136.780,-10.783,-24.994,-126.843,-218.44,-218.44,-206.507,100,31.00
2025-12-11 22:43:52.794,WT901BLE67,90856446-A74E-F462-0152-8475C1E77738,1.687,-0.666,0.650,20.874,188.354,-136.780,-10.783,-24.994,-126.843,-218.44,-218.44,-206.507,100,31.00
2025-12-11 22:43:52.798,WT901BLE67,90856446-A74E-F462-0152-8475C1E77738,1.667,-0.754,0.832,28.381,139.282,-150.024,-11.821,-26.526,-124.942,-218.44,-218.44,-206.507,100,31.00
2025-12-11 22:43:52.799,WT901BLE67,90856446-A74E-F462-0152-8475C1E77738,1.647,-0.301,0.599,18.188,-54.321,-233.521,-6.691,-24.395,-134.720,-218.44,-218.44,-206.507,100,31.00
2025-12-11 22:43:52.799,WT901BLE67,90856446-A74E-F462-0152-8475C1E77738,1.647,-0.301,0.599,18.188,-54.321,-233.521,-6.691,-24.395,-134.720,-218.44,-218.44,-206.507,100,31.00
2025-12-11 22:43:52.805,WT901BLE67,90856446-A74E-F462-0152-8475C1E77738,1.647,-0.301,0.599,18.188,-54.321,-233.521,-6.691,-24.395,-134.720,-218.44,-218.44,-206.507,100,31.00
2025-12-11 22:43:52.809,WT901BLE67,90856446-A74E-F462-0152-8475C1E77738,1.647,-0.301,0.599,18.188,-54.321,-233.521,-6.691,-24.395,-134.720,-218.44,-218.44,-206.507,100,31.00
2025-12-11 22:43:52.814,WT901BLE67,90856446-A74E-F462-0152-8475C1E77738,1.647,-0.301,0.599,18.188,-54.321,-233.521,-6.691,-24.395,-134.720,-218.44,-218.44,-206.507,100,31.00
2025-12-11 22:43:52.821,WT901BLE67,90856446-A74E-F462-0152-8475C1E77738,1.647,-0.301,0.599,18.188,-54.321,-233.521,-6.691,-24.395,-134.720,-218.44,-218.44,-206.507,100,31.00
2025-12-11 22:43:52.824,WT901BLE67,90856446-A74E-F462-0152-8475C1E77738,1.647,-0.301,0.599,18.188,-54.321,-233.521,-6.691,-24.395,-134.720,-218.44,-218.44,-206.507,100,31.00
2025-12-11 22:43:52.829,WT901BLE67,90856446-A74E-F462-0152-8475C1E77738,1.647,-0.301,0.599,18.188,-54.321,-233.521,-6.691,-24.395,-134.720,-218.44,-218.44,-206.507,100,31.00
2025-12-11 22:43:52.834,WT901BLE67,90856446-A74E-F462-0152-8475C1E77738,1.647,-0.301,0.599,18.188,-54.321,-233.521,-6.691,-24.395,-134.720,-218.44,-218.44,-206.507,100,31.00
2025-12-11 22:43:52.839,WT901BLE67,90856446-A74E-F462-0152-8475C1E77738,1.647,-0.301,0.599,18.188,-54.321,-233.521,-6.691,-24.395,-134.720,-218.44,-218.44,-206.507,100,31.00
2025-12-11 22:43:52.844,WT901BLE67,90856446-A74E-F462-0152-8475C1E77738,1.647,-0.301,0.599,18.188,-54.321,-233.521,-6.691,-24.395,-134.720,-218.44,-218.44,-206.507,100,31.00
2025-12-11 22:43:52.849,WT901BLE67,90856446-A74E-F462-0152-8475C1E77738,1.647,-0.301,0.599,18.188,-54.321,-233.521,-6.691,-24.395,-134.720,-218.44,-218.44,-206.507,100,31.00
2025-12-11 22:43:52.854,WT901BLE67,90856446-A74E-F462-0152-8475C1E77738,1.647,-0.301,0.599,18.188,-54.321,-233.521,-6.691,-24.395,-134.720,-218.44,-218.44,-206.507,100,31.00
2025-12-11 22:43:52.859,WT901BLE67,90856446-A74E-F462-0152-8475C1E77738,1.647,-0.301,0.599,18.188,-54.321,-233.521,-6.691,-24.395,-134.720,-218.44,-218.44,-206.507,100,31.00
2025-12-11 22:43:52.862,WT901BLE67,90856446-A74E-F462-0152-8475C1E77738,1.621,-0.298,0.495,27.100,6.287,-184.692,-7.855,-23.593,-132.286,-218.44,-218.44,-206.507,100,31.00
2025-12-11 22:43:52.862,WT901BLE67,90856446-A74E-F462-0152-8475C1E77738,1.621,-0.216,0.393,24.231,-71.411,-349.365,-0.165,-28.834,-147.838,-218.44,-218.44,-206.507,100,31.00
2025-12-11 22:43:52.864,WT901BLE67,90856446-A74E-F462-0152-8475C1E77738,1.621,-0.216,0.393,24.231,-71.411,-349.365,-0.165,-28.834,-147.838,-218.44,-218.44,-206.507,100,31.00
2025-12-11 22:43:52.871,WT901BLE67,90856446-A74E-F462-0152-8475C1E77738,1.621,-0.216,0.393,24.231,-71.411,-349.365,-0.165,-28.834,-147.838,-218.44,-218.44,-206.507,100,31.00
2025-12-11 22:43:52.874,WT901BLE67,90856446-A74E-F462-0152-8475C1E77738,1.621,-0.216,0.393,24.231,-71.411,-349.365,-0.165,-28.834,-147.838,-218.44,-218.44,-206.507,100,31.00
2025-12-11 22:43:52.879,WT901BLE67,90856446-A74E-F462-0152-8475C1E77738,1.621,-0.216,0.393,24.231,-71.411,-349.365,-0.165,-28.834,-147.838,-218.44,-218.44,-206.507,100,31.00
2025-12-11 22:43:52.884,WT901BLE67,90856446-A74E-F462-0152-8475C1E77738,1.621,-0.216,0.393,24.231,-71.411,-349.365,-0.165,-28.834,-147.838,-218.44,-218.44,-206.507,100,31.00
2025-12-11 22:43:52.889,WT901BLE67,90856446-A74E-F462-0152-8475C1E77738,1.621,-0.216,0.393,24.231,-71.411,-349.365,-0.165,-28.834,-147.838,-218.44,-218.44,-206.507,100,31.00
2025-12-11 22:43:52.892,WT901BLE67,90856446-A74E-F462-0152-8475C1E77738,1.659,-0.269,0.398,27.405,-97.351,-307.434,-2.285,-28.059,-143.915,-218.44,-218.44,-206.507,100,31.00
2025-12-11 22:43:52.892,WT901BLE67,90856446-A74E-F462-0152-8475C1E77738,1.666,-0.152,0.246,-36.743,168.701,-377.625,7.004,-24.807,-164.614,-218.44,-218.44,-206.507,100,31.00
2025-12-11 22:43:52.894,WT901BLE67,90856446-A74E-F462-0152-8475C1E77738,1.666,-0.152,0.246,-36.743,168.701,-377.625,7.004,-24.807,-164.614,-218.44,-218.44,-206.507,100,31.00
2025-12-11 22:43:52.899,WT901BLE67,90856446-A74E-F462-0152-8475C1E77738,1.666,-0.152,0.246,-36.743,168.701,-377.625,7.004,-24.807,-164.614,-218.44,-218.44,-206.507,100,31.00
2025-12-11 22:43:52.904,WT901BLE67,90856446-A74E-F462-0152-8475C1E77738,1.666,-0.152,0.246,-36.743,168.701,-377.625,7.004,-24.807,-164.614,-218.44,-218.44,-206.507,100,31.00
2025-12-11 22:43:52.909,WT901BLE67,90856446-A74E-F462-0152-8475C1E77738,1.666,-0.152,0.246,-36.743,168.701,-377.625,7.004,-24.807,-164.614,-218.44,-218.44,-206.507,100,31.00
2025-12-11 22:43:52.914,WT901BLE67,90856446-A74E-F462-0152-8475C1E77738,1.666,-0.152,0.246,-36.743,168.701,-377.625,7.004,-24.807,-164.614,-218.44,-218.44,-206.507,100,31.00
2025-12-11 22:43:52.920,WT901BLE67,90856446-A74E-F462-0152-8475C1E77738,1.553,-0.141,0.231,-25.696,117.188,-389.771,5.625,-26.884,-160.631,-218.44,-218.44,-206.507,100,31.00
2025-12-11 22:43:52.921,WT901BLE67,90856446-A74E-F462-0152-8475C1E77738,1.360,-0.166,0.411,62.012,-31.982,-299.072,11.706,-19.259,-178.704,-218.44,-218.44,-206.507,100,31.00
2025-12-11 22:43:52.921,WT901BLE67,90856446-A74E-F462-0152-8475C1E77738,1.360,-0.166,0.411,62.012,-31.982,-299.072,11.706,-19.259,-178.704,-218.44,-218.44,-206.507,100,31.00
2025-12-11 22:43:52.924,WT901BLE67,90856446-A74E-F462-0152-8475C1E77738,1.360,-0.166,0.411,62.012,-31.982,-299.072,11.706,-19.259,-178.704,-218.44,-218.44,-206.507,100,31.00
2025-12-11 22:43:52.929,WT901BLE67,90856446-A74E-F462-0152-8475C1E77738,1.360,-0.166,0.411,62.012,-31.982,-299.072,11.706,-19.259,-178.704,-218.44,-218.44,-206.507,100,31.00
2025-12-11 22:43:52.934,WT901BLE67,90856446-A74E-F462-0152-8475C1E77738,1.360,-0.166,0.411,62.012,-31.982,-299.072,11.706,-19.259,-178.704,-218.44,-218.44,-206.507,100,31.00
2025-12-11 22:43:52.939,WT901BLE67,90856446-A74E-F462-0152-8475C1E77738,1.360,-0.166,0.411,62.012,-31.982,-299.072,11.706,-19.259,-178.704,-218.44,-218.44,-206.507,100,31.00
2025-12-11 22:43:52.944,WT901BLE67,90856446-A74E-F462-0152-8475C1E77738,1.360,-0.166,0.411,62.012,-31.982,-299.072,11.706,-19.259,-178.704,-218.44,-218.44,-206.507,100,31.00
2025-12-11 22:43:52.949,WT901BLE67,90856446-A74E-F462-0152-8475C1E77738,1.360,-0.166,0.411,62.012,-31.982,-299.072,11.706,-19.259,-178.704,-218.44,-218.44,-206.507,100,31.00
2025-12-11 22:43:52.954,WT901BLE67,90856446-A74E-F462-0152-8475C1E77738,1.360,-0.166,0.411,62.012,-31.982,-299.072,11.706,-19.259,-178.704,-218.44,-218.44,-206.507,100,31.00
2025-12-11 22:43:52.959,WT901BLE67,90856446-A74E-F462-0152-8475C1E77738,1.360,-0.166,0.411,62.012,-31.982,-299.072,11.706,-19.259,-178.704,-218.44,-218.44,-206.507,100,31.00
2025-12-11 22:43:52.964,WT901BLE67,90856446-A74E-F462-0152-8475C1E77738,1.360,-0.166,0.411,62.012,-31.982,-299.072,11.706,-19.259,-178.704,-218.44,-218.44,-206.507,100,31.00
2025-12-11 22:43:52.970,WT901BLE67,90856446-A74E-F462-0152-8475C1E77738,1.360,-0.166,0.411,62.012,-31.982,-299.072,11.706,-19.259,-178.704,-218.44,-218.44,-206.507,100,31.00
2025-12-11 22:43:52.974,WT901BLE67,90856446-A74E-F462-0152-8475C1E77738,1.360,-0.166,0.411,62.012,-31.982,-299.072,11.706,-19.259,-178.704,-218.44,-218.44,-206.507,100,31.00
2025-12-11 22:43:52.979,WT901BLE67,90856446-A74E-F462-0152-8475C1E77738,1.360,-0.166,0.411,62.012,-31.982,-299.072,11.706,-19.259,-178.704,-218.44,-218.44,-206.507,100,31.00
2025-12-11 22:43:52.982,WT901BLE67,90856446-A74E-F462-0152-8475C1E77738,1.359,-0.250,0.472,-2.258,40.771,-326.416,10.080,-19.561,-175.512,-218.44,-218.44,-206.507,100,31.00
2025-12-11 22:43:52.982,WT901BLE67,90856446-A74E-F462-0152-8475C1E77738,1.432,0.023,0.438,99.670,82.581,-264.587,18.649,-15.386,170.442,-218.44,-218.44,-206.507,100,31.00
2025-12-11 22:43:52.984,WT901BLE67,90856446-A74E-F462-0152-8475C1E77738,1.432,0.023,0.438,99.670,82.581,-264.587,18.649,-15.386,170.442,-218.44,-218.44,-206.507,100,31.00
2025-12-11 22:43:52.990,WT901BLE67,90856446-A74E-F462-0152-8475C1E77738,1.432,0.023,0.438,99.670,82.581,-264.587,18.649,-15.386,170.442,-218.44,-218.44,-206.507,100,31.00
2025-12-11 22:43:52.993,WT901BLE67,90856446-A74E-F462-0152-8475C1E77738,1.432,0.023,0.438,99.670,82.581,-264.587,18.649,-15.386,170.442,-218.44,-218.44,-206.507,100,31.00
2025-12-11 22:43:52.999,WT901BLE67,90856446-A74E-F462-0152-8475C1E77738,1.432,0.023,0.438,99.670,82.581,-264.587,18.649,-15.386,170.442,-218.44,-218.44,-206.507,100,31.00
2025-12-11 22:43:53.004,WT901BLE67,90856446-A74E-F462-0152-8475C1E77738,1.432,0.023,0.438,99.670,82.581,-264.587,18.649,-15.386,170.442,-218.44,-218.44,-206.507,100,31.00
2025-12-11 22:43:53.009,WT901BLE67,90856446-A74E-F462-0152-8475C1E77738,1.432,0.023,0.438,99.670,82.581,-264.587,18.649,-15.386,170.442,-218.44,-218.44,-206.507,100,31.00
2025-12-11 22:43:53.012,WT901BLE67,90856446-A74E-F462-0152-8475C1E77738,1.203,0.028,0.322,90.881,32.837,-276.428,16.996,-16.974,172.804,-218.44,-218.44,-206.507,100,31.00
2025-12-11 22:43:53.012,WT901BLE67,90856446-A74E-F462-0152-8475C1E77738,1.345,0.207,0.501,110.474,474.915,-220.703,23.796,0.368,166.558,-218.44,-218.44,-206.507,100,31.00
2025-12-11 22:43:53.014,WT901BLE67,90856446-A74E-F462-0152-8475C1E77738,1.345,0.207,0.501,110.474,474.915,-220.703,23.796,0.368,166.558,-218.44,-218.44,-206.507,100,31.00
2025-12-11 22:43:53.021,WT901BLE67,90856446-A74E-F462-0152-8475C1E77738,1.345,0.207,0.501,110.474,474.915,-220.703,23.796,0.368,166.558,-218.44,-218.44,-206.507,100,31.00
2025-12-11 22:43:53.024,WT901BLE67,90856446-A74E-F462-0152-8475C1E77738,1.345,0.207,0.501,110.474,474.915,-220.703,23.796,0.368,166.558,-218.44,-218.44,-206.507,100,31.00
2025-12-11 22:43:53.029,WT901BLE67,90856446-A74E-F462-0152-8475C1E77738,1.345,0.207,0.501,110.474,474.915,-220.703,23.796,0.368,166.558,-218.44,-218.44,-206.507,100,31.00
2025-12-11 22:43:53.034,WT901BLE67,90856446-A74E-F462-0152-8475C1E77738,1.345,0.207,0.501,110.474,474.915,-220.703,23.796,0.368,166.558,-218.44,-218.44,-206.507,100,31.00
2025-12-11 22:43:53.039,WT901BLE67,90856446-A74E-F462-0152-8475C1E77738,1.345,0.207,0.501,110.474,474.915,-220.703,23.796,0.368,166.558,-218.44,-218.44,-206.507,100,31.00
2025-12-11 22:43:53.044,WT901BLE67,90856446-A74E-F462-0152-8475C1E77738,1.345,0.207,0.501,110.474,474.915,-220.703,23.796,0.368,166.558,-218.44,-218.44,-206.507,100,31.00
2025-12-11 22:43:53.049,WT901BLE67,90856446-A74E-F462-0152-8475C1E77738,1.345,0.207,0.501,110.474,474.915,-220.703,23.796,0.368,166.558,-218.44,-218.44,-206.507,100,31.00
2025-12-11 22:43:53.054,WT901BLE67,90856446-A74E-F462-0152-8475C1E77738,1.345,0.207,0.501,110.474,474.915,-220.703,23.796,0.368,166.558,-218.44,-218.44,-206.507,100,31.00
2025-12-11 22:43:53.059,WT901BLE67,90856446-A74E-F462-0152-8475C1E77738,1.345,0.207,0.501,110.474,474.915,-220.703,23.796,0.368,166.558,-218.44,-218.44,-206.507,100,31.00
2025-12-11 22:43:53.064,WT901BLE67,90856446-A74E-F462-0152-8475C1E77738,1.345,0.207,0.501,110.474,474.915,-220.703,23.796,0.368,166.558,-218.44,-218.44,-206.507,100,31.00
2025-12-11 22:43:53.071,WT901BLE67,90856446-A74E-F462-0152-8475C1E77738,1.770,0.291,0.374,101.562,402.832,-229.492,22.632,-4.719,166.783,-218.44,-218.44,-206.507,100,31.00
2025-12-11 22:43:53.071,WT901BLE67,90856446-A74E-F462-0152-8475C1E77738,1.648,0.463,0.324,157.715,35.889,-297.485,30.938,8.712,157.989,-218.44,-218.44,-206.507,100,31.00
2025-12-11 22:43:53.071,WT901BLE67,90856446-A74E-F462-0152-8475C1E77738,1.648,0.463,0.324,157.715,35.889,-297.485,30.938,8.712,157.989,-218.44,-218.44,-206.507,100,31.00
2025-12-11 22:43:53.075,WT901BLE67,90856446-A74E-F462-0152-8475C1E77738,1.648,0.463,0.324,157.715,35.889,-297.485,30.938,8.712,157.989,-218.44,-218.44,-206.507,100,31.00
2025-12-11 22:43:53.079,WT901BLE67,90856446-A74E-F462-0152-8475C1E77738,1.648,0.463,0.324,157.715,35.889,-297.485,30.938,8.712,157.989,-218.44,-218.44,-206.507,100,31.00
2025-12-11 22:43:53.084,WT901BLE67,90856446-A74E-F462-0152-8475C1E77738,1.648,0.463,0.324,157.715,35.889,-297.485,30.938,8.712,157.989,-218.44,-218.44,-206.507,100,31.00
2025-12-11 22:43:53.090,WT901BLE67,90856446-A74E-F462-0152-8475C1E77738,1.648,0.463,0.324,157.715,35.889,-297.485,30.938,8.712,157.989,-218.44,-218.44,-206.507,100,31.00
2025-12-11 22:43:53.094,WT901BLE67,90856446-A74E-F462-0152-8475C1E77738,1.648,0.463,0.324,157.715,35.889,-297.485,30.938,8.712,157.989,-218.44,-218.44,-206.507,100,31.00
2025-12-11 22:43:53.099,WT901BLE67,90856446-A74E-F462-0152-8475C1E77738,1.648,0.463,0.324,157.715,35.889,-297.485,30.938,8.712,157.989,-218.44,-218.44,-206.507,100,31.00
2025-12-11 22:43:53.104,WT901BLE67,90856446-A74E-F462-0152-8475C1E77738,1.618,0.328,0.439,172.791,-2.136,-298.523,29.658,6.949,160.406,-218.44,-218.44,-206.507,100,31.00
2025-12-11 22:43:53.104,WT901BLE67,90856446-A74E-F462-0152-8475C1E77738,1.545,0.545,0.297,209.290,-75.745,-312.683,35.706,14.112,146.255,-218.44,-218.44,-206.507,100,31.00
2025-12-11 22:43:53.105,WT901BLE67,90856446-A74E-F462-0152-8475C1E77738,1.545,0.545,0.297,209.290,-75.745,-312.683,35.706,14.112,146.255,-218.44,-218.44,-206.507,100,31.00
2025-12-11 22:43:53.109,WT901BLE67,90856446-A74E-F462-0152-8475C1E77738,1.545,0.545,0.297,209.290,-75.745,-312.683,35.706,14.112,146.255,-218.44,-218.44,-206.507,100,31.00
2025-12-11 22:43:53.114,WT901BLE67,90856446-A74E-F462-0152-8475C1E77738,1.545,0.545,0.297,209.290,-75.745,-312.683,35.706,14.112,146.255,-218.44,-218.44,-206.507,100,31.00
2025-12-11 22:43:53.121,WT901BLE67,90856446-A74E-F462-0152-8475C1E77738,1.545,0.545,0.297,209.290,-75.745,-312.683,35.706,14.112,146.255,-218.44,-218.44,-206.507,100,31.00
2025-12-11 22:43:53.124,WT901BLE67,90856446-A74E-F462-0152-8475C1E77738,1.545,0.545,0.297,209.290,-75.745,-312.683,35.706,14.112,146.255,-218.44,-218.44,-206.507,100,31.00
2025-12-11 22:43:53.129,WT901BLE67,90856446-A74E-F462-0152-8475C1E77738,1.545,0.545,0.297,209.290,-75.745,-312.683,35.706,14.112,146.255,-218.44,-218.44,-206.507,100,31.00
2025-12-11 22:43:53.132,WT901BLE67,90856446-A74E-F462-0152-8475C1E77738,1.525,0.512,0.364,192.383,-65.247,-324.097,34.338,12.920,149.332,-218.44,-218.44,-206.507,100,31.00
2025-12-11 22:43:53.132,WT901BLE67,90856446-A74E-F462-0152-8475C1E77738,1.564,0.758,0.390,240.723,-70.862,-344.299,41.666,20.292,134.011,-218.44,-218.44,-206.507,100,31.00
2025-12-11 22:43:53.134,WT901BLE67,90856446-A74E-F462-0152-8475C1E77738,1.564,0.758,0.390,240.723,-70.862,-344.299,41.666,20.292,134.011,-218.44,-218.44,-206.507,100,31.00
2025-12-11 22:43:53.141,WT901BLE67,90856446-A74E-F462-0152-8475C1E77738,1.564,0.758,0.390,240.723,-70.862,-344.299,41.666,20.292,134.011,-218.44,-218.44,-206.507,100,31.00
2025-12-11 22:43:53.144,WT901BLE67,90856446-A74E-F462-0152-8475C1E77738,1.564,0.758,0.390,240.723,-70.862,-344.299,41.666,20.292,134.011,-218.44,-218.44,-206.507,100,31.00
2025-12-11 22:43:53.149,WT901BLE67,90856446-A74E-F462-0152-8475C1E77738,1.564,0.758,0.390,240.723,-70.862,-344.299,41.666,20.292,134.011,-218.44,-218.44,-206.507,100,31.00
2025-12-11 22:43:53.154,WT901BLE67,90856446-A74E-F462-0152-8475C1E77738,1.564,0.758,0.390,240.723,-70.862,-344.299,41.666,20.292,134.011,-218.44,-218.44,-206.507,100,31.00
2025-12-11 22:43:53.159,WT901BLE67,90856446-A74E-F462-0152-8475C1E77738,1.564,0.758,0.390,240.723,-70.862,-344.299,41.666,20.292,134.011,-218.44,-218.44,-206.507,100,31.00
2025-12-11 22:43:53.162,WT901BLE67,90856446-A74E-F462-0152-8475C1E77738,1.614,0.792,0.383,245.422,-75.745,-337.708,40.336,18.572,137.258,-218.44,-218.44,-206.507,100,31.00
2025-12-11 22:43:53.162,WT901BLE67,90856446-A74E-F462-0152-8475C1E77738,1.618,0.808,0.588,282.227,-45.837,-347.473,46.445,28.136,120.795,-218.44,-218.44,-206.507,100,31.00
2025-12-11 22:43:53.164,WT901BLE67,90856446-A74E-F462-0152-8475C1E77738,1.618,0.808,0.588,282.227,-45.837,-347.473,46.445,28.136,120.795,-218.44,-218.44,-206.507,100,31.00
2025-12-11 22:43:53.171,WT901BLE67,90856446-A74E-F462-0152-8475C1E77738,1.618,0.808,0.588,282.227,-45.837,-347.473,46.445,28.136,120.795,-218.44,-218.44,-206.507,100,31.00
2025-12-11 22:43:53.174,WT901BLE67,90856446-A74E-F462-0152-8475C1E77738,1.618,0.808,0.588,282.227,-45.837,-347.473,46.445,28.136,120.795,-218.44,-218.44,-206.507,100,31.00
2025-12-11 22:43:53.179,WT901BLE67,90856446-A74E-F462-0152-8475C1E77738,1.618,0.808,0.588,282.227,-45.837,-347.473,46.445,28.136,120.795,-218.44,-218.44,-206.507,100,31.00
2025-12-11 22:43:53.184,WT901BLE67,90856446-A74E-F462-0152-8475C1E77738,1.618,0.808,0.588,282.227,-45.837,-347.473,46.445,28.136,120.795,-218.44,-218.44,-206.507,100,31.00
2025-12-11 22:43:53.189,WT901BLE67,90856446-A74E-F462-0152-8475C1E77738,1.618,0.808,0.588,282.227,-45.837,-347.473,46.445,28.136,120.795,-218.44,-218.44,-206.507,100,31.00
2025-12-11 22:43:53.194,WT901BLE67,90856446-A74E-F462-0152-8475C1E77738,1.618,0.808,0.588,282.227,-45.837,-347.473,46.445,28.136,120.795,-218.44,-218.44,-206.507,100,31.00
2025-12-11 22:43:53.199,WT901BLE67,90856446-A74E-F462-0152-8475C1E77738,1.618,0.808,0.588,282.227,-45.837,-347.473,46.445,28.136,120.795,-218.44,-218.44,-206.507,100,31.00
2025-12-11 22:43:53.204,WT901BLE67,90856446-A74E-F462-0152-8475C1E77738,1.618,0.808,0.588,282.227,-45.837,-347.473,46.445,28.136,120.795,-218.44,-218.44,-206.507,100,31.00
2025-12-11 22:43:53.209,WT901BLE67,90856446-A74E-F462-0152-8475C1E77738,1.618,0.808,0.588,282.227,-45.837,-347.473,46.445,28.136,120.795,-218.44,-218.44,-206.507,100,31.00
2025-12-11 22:43:53.214,WT901BLE67,90856446-A74E-F462-0152-8475C1E77738,1.618,0.808,0.588,282.227,-45.837,-347.473,46.445,28.136,120.795,-218.44,-218.44,-206.507,100,31.00
2025-12-11 22:43:53.221,WT901BLE67,90856446-A74E-F462-0152-8475C1E77738,1.751,0.832,0.510,265.137,-79.956,-356.323,45.038,25.807,123.788,-218.44,-218.44,-206.507,100,31.00
2025-12-11 22:43:53.221,WT901BLE67,90856446-A74E-F462-0152-8475C1E77738,1.634,0.712,0.477,297.363,-25.024,-267.578,54.668,38.595,113.637,-218.44,-218.44,-206.507,100,31.00
2025-12-11 22:43:53.221,WT901BLE67,90856446-A74E-F462-0152-8475C1E77738,1.634,0.712,0.477,297.363,-25.024,-267.578,54.668,38.595,113.637,-218.44,-218.44,-206.507,100,31.00
2025-12-11 22:43:53.225,WT901BLE67,90856446-A74E-F462-0152-8475C1E77738,1.634,0.712,0.477,297.363,-25.024,-267.578,54.668,38.595,113.637,-218.44,-218.44,-206.507,100,31.00
2025-12-11 22:43:53.229,WT901BLE67,90856446-A74E-F462-0152-8475C1E77738,1.634,0.712,0.477,297.363,-25.024,-267.578,54.668,38.595,113.637,-218.44,-218.44,-206.507,100,31.00
2025-12-11 22:43:53.234,WT901BLE67,90856446-A74E-F462-0152-8475C1E77738,1.634,0.712,0.477,297.363,-25.024,-267.578,54.668,38.595,113.637,-218.44,-218.44,-206.507,100,31.00
2025-12-11 22:43:53.240,WT901BLE67,90856446-A74E-F462-0152-8475C1E77738,1.634,0.712,0.477,297.363,-25.024,-267.578,54.668,38.595,113.637,-218.44,-218.44,-206.507,100,31.00
2025-12-11 22:43:53.244,WT901BLE67,90856446-A74E-F462-0152-8475C1E77738,1.634,0.712,0.477,297.363,-25.024,-267.578,54.668,38.595,113.637,-218.44,-218.44,-206.507,100,31.00
2025-12-11 22:43:53.249,WT901BLE67,90856446-A74E-F462-0152-8475C1E77738,1.682,0.718,0.374,307.983,7.751,-289.429,53.047,36.557,115.851,-218.44,-218.44,-206.507,100,31.00
2025-12-11 22:43:53.249,WT901BLE67,90856446-A74E-F462-0152-8475C1E77738,1.718,0.460,0.628,257.263,20.325,-143.311,62.902,45.445,109.083,-218.44,-218.44,-206.507,100,31.00
2025-12-11 22:43:53.249,WT901BLE67,90856446-A74E-F462-0152-8475C1E77738,1.718,0.460,0.628,257.263,20.325,-143.311,62.902,45.445,109.083,-218.44,-218.44,-206.507,100,31.00
2025-12-11 22:43:53.256,WT901BLE67,90856446-A74E-F462-0152-8475C1E77738,1.718,0.460,0.628,257.263,20.325,-143.311,62.902,45.445,109.083,-218.44,-218.44,-206.507,100,31.00
2025-12-11 22:43:53.259,WT901BLE67,90856446-A74E-F462-0152-8475C1E77738,1.718,0.460,0.628,257.263,20.325,-143.311,62.902,45.445,109.083,-218.44,-218.44,-206.507,100,31.00
2025-12-11 22:43:53.264,WT901BLE67,90856446-A74E-F462-0152-8475C1E77738,1.718,0.460,0.628,257.263,20.325,-143.311,62.902,45.445,109.083,-218.44,-218.44,-206.507,100,31.00
2025-12-11 22:43:53.271,WT901BLE67,90856446-A74E-F462-0152-8475C1E77738,1.718,0.460,0.628,257.263,20.325,-143.311,62.902,45.445,109.083,-218.44,-218.44,-206.507,100,31.00
2025-12-11 22:43:53.274,WT901BLE67,90856446-A74E-F462-0152-8475C1E77738,1.718,0.460,0.628,257.263,20.325,-143.311,62.902,45.445,109.083,-218.44,-218.44,-206.507,100,31.00
2025-12-11 22:43:53.279,WT901BLE67,90856446-A74E-F462-0152-8475C1E77738,1.718,0.460,0.628,257.263,20.325,-143.311,62.902,45.445,109.083,-218.44,-218.44,-206.507,100,31.00
2025-12-11 22:43:53.282,WT901BLE67,90856446-A74E-F462-0152-8475C1E77738,1.685,0.524,0.548,278.198,19.836,-170.959,60.809,44.072,109.786,-218.44,-218.44,-206.507,100,31.00
2025-12-11 22:43:53.282,WT901BLE67,90856446-A74E-F462-0152-8475C1E77738,1.646,0.137,0.826,155.945,5.005,-121.643,69.532,50.295,107.298,-218.44,-218.44,-206.507,100,31.00
2025-12-11 22:43:53.284,WT901BLE67,90856446-A74E-F462-0152-8475C1E77738,1.646,0.137,0.826,155.945,5.005,-121.643,69.532,50.295,107.298,-218.44,-218.44,-206.507,100,31.00
2025-12-11 22:43:53.291,WT901BLE67,90856446-A74E-F462-0152-8475C1E77738,1.646,0.137,0.826,155.945,5.005,-121.643,69.532,50.295,107.298,-218.44,-218.44,-206.507,100,31.00
2025-12-11 22:43:53.294,WT901BLE67,90856446-A74E-F462-0152-8475C1E77738,1.646,0.137,0.826,155.945,5.005,-121.643,69.532,50.295,107.298,-218.44,-218.44,-206.507,100,31.00
2025-12-11 22:43:53.299,WT901BLE67,90856446-A74E-F462-0152-8475C1E77738,1.646,0.137,0.826,155.945,5.005,-121.643,69.532,50.295,107.298,-218.44,-218.44,-206.507,100,31.00
2025-12-11 22:43:53.304,WT901BLE67,90856446-A74E-F462-0152-8475C1E77738,1.646,0.137,0.826,155.945,5.005,-121.643,69.532,50.295,107.298,-218.44,-218.44,-206.507,100,31.00
2025-12-11 22:43:53.309,WT901BLE67,90856446-A74E-F462-0152-8475C1E77738,1.646,0.137,0.826,155.945,5.005,-121.643,69.532,50.295,107.298,-218.44,-218.44,-206.507,100,31.00
2025-12-11 22:43:53.314,WT901BLE67,90856446-A74E-F462-0152-8475C1E77738,1.646,0.137,0.826,155.945,5.005,-121.643,69.532,50.295,107.298,-218.44,-218.44,-206.507,100,31.00
2025-12-11 22:43:53.321,WT901BLE67,90856446-A74E-F462-0152-8475C1E77738,1.646,0.137,0.826,155.945,5.005,-121.643,69.532,50.295,107.298,-218.44,-218.44,-206.507,100,31.00
2025-12-11 22:43:53.324,WT901BLE67,90856446-A74E-F462-0152-8475C1E77738,1.646,0.137,0.826,155.945,5.005,-121.643,69.532,50.295,107.298,-218.44,-218.44,-206.507,100,31.00
2025-12-11 22:43:53.329,WT901BLE67,90856446-A74E-F462-0152-8475C1E77738,1.646,0.137,0.826,155.945,5.005,-121.643,69.532,50.295,107.298,-218.44,-218.44,-206.507,100,31.00
2025-12-11 22:43:53.334,WT901BLE67,90856446-A74E-F462-0152-8475C1E77738,1.646,0.137,0.826,155.945,5.005,-121.643,69.532,50.295,107.298,-218.44,-218.44,-206.507,100,31.00
2025-12-11 22:43:53.339,WT901BLE67,90856446-A74E-F462-0152-8475C1E77738,1.751,0.201,0.840,188.599,13.245,-123.169,68.406,49.142,107.886,-218.44,-218.44,-206.507,100,31.00
2025-12-11 22:43:53.339,WT901BLE67,90856446-A74E-F462-0152-8475C1E77738,1.751,0.201,0.840,188.599,13.245,-123.169,68.406,49.142,107.886,-218.44,-218.44,-206.507,100,31.00
2025-12-11 22:43:53.344,WT901BLE67,90856446-A74E-F462-0152-8475C1E77738,1.751,0.201,0.840,188.599,13.245,-123.169,68.406,49.142,107.886,-218.44,-218.44,-206.507,100,31.00
2025-12-11 22:43:53.349,WT901BLE67,90856446-A74E-F462-0152-8475C1E77738,1.751,0.201,0.840,188.599,13.245,-123.169,68.406,49.142,107.886,-218.44,-218.44,-206.507,100,31.00
2025-12-11 22:43:53.355,WT901BLE67,90856446-A74E-F462-0152-8475C1E77738,1.751,0.201,0.840,188.599,13.245,-123.169,68.406,49.142,107.886,-218.44,-218.44,-206.507,100,31.00
2025-12-11 22:43:53.359,WT901BLE67,90856446-A74E-F462-0152-8475C1E77738,1.751,0.201,0.840,188.599,13.245,-123.169,68.406,49.142,107.886,-218.44,-218.44,-206.507,100,31.00
2025-12-11 22:43:53.364,WT901BLE67,90856446-A74E-F462-0152-8475C1E77738,1.751,0.201,0.840,188.599,13.245,-123.169,68.406,49.142,107.886,-218.44,-218.44,-206.507,100,31.00
2025-12-11 22:43:53.371,WT901BLE67,90856446-A74E-F462-0152-8475C1E77738,1.675,0.090,0.549,48.279,10.681,-59.570,71.115,53.778,105.364,-218.44,-218.44,-206.507,100,31.00
2025-12-11 22:43:53.371,WT901BLE67,90856446-A74E-F462-0152-8475C1E77738,1.596,0.146,0.788,10.254,25.757,-53.284,72.054,55.217,104.694,-218.44,-218.44,-206.507,100,31.00
2025-12-11 22:43:53.371,WT901BLE67,90856446-A74E-F462-0152-8475C1E77738,1.596,0.146,0.788,10.254,25.757,-53.284,72.054,55.217,104.694,-218.44,-218.44,-206.507,100,31.00
2025-12-11 22:43:53.375,WT901BLE67,90856446-A74E-F462-0152-8475C1E77738,1.596,0.146,0.788,10.254,25.757,-53.284,72.054,55.217,104.694,-218.44,-218.44,-206.507,100,31.00
2025-12-11 22:43:53.379,WT901BLE67,90856446-A74E-F462-0152-8475C1E77738,1.596,0.146,0.788,10.254,25.757,-53.284,72.054,55.217,104.694,-218.44,-218.44,-206.507,100,31.00
2025-12-11 22:43:53.384,WT901BLE67,90856446-A74E-F462-0152-8475C1E77738,1.596,0.146,0.788,10.254,25.757,-53.284,72.054,55.217,104.694,-218.44,-218.44,-206.507,100,31.00
2025-12-11 22:43:53.390,WT901BLE67,90856446-A74E-F462-0152-8475C1E77738,1.596,0.146,0.788,10.254,25.757,-53.284,72.054,55.217,104.694,-218.44,-218.44,-206.507,100,31.00
2025-12-11 22:43:53.394,WT901BLE67,90856446-A74E-F462-0152-8475C1E77738,1.596,0.146,0.788,10.254,25.757,-53.284,72.054,55.217,104.694,-218.44,-218.44,-206.507,100,31.00
2025-12-11 22:43:53.398,WT901BLE67,90856446-A74E-F462-0152-8475C1E77738,2.036,0.091,0.670,23.193,-7.751,-37.415,71.840,54.646,104.568,-218.44,-218.44,-206.507,100,31.00
2025-12-11 22:43:53.398,WT901BLE67,90856446-A74E-F462-0152-8475C1E77738,2.028,0.511,1.165,-71.289,212.830,58.960,79.376,56.431,115.505,-218.44,-218.44,-206.507,100,31.00
2025-12-11 22:43:53.399,WT901BLE67,90856446-A74E-F462-0152-8475C1E77738,2.028,0.511,1.165,-71.289,212.830,58.960,79.376,56.431,115.505,-218.44,-218.44,-206.507,100,31.00
2025-12-11 22:43:53.406,WT901BLE67,90856446-A74E-F462-0152-8475C1E77738,2.028,0.511,1.165,-71.289,212.830,58.960,79.376,56.431,115.505,-218.44,-218.44,-206.507,100,31.00
2025-12-11 22:43:53.409,WT901BLE67,90856446-A74E-F462-0152-8475C1E77738,2.028,0.511,1.165,-71.289,212.830,58.960,79.376,56.431,115.505,-218.44,-218.44,-206.507,100,31.00
2025-12-11 22:43:53.414,WT901BLE67,90856446-A74E-F462-0152-8475C1E77738,2.028,0.511,1.165,-71.289,212.830,58.960,79.376,56.431,115.505,-218.44,-218.44,-206.507,100,31.00
2025-12-11 22:43:53.421,WT901BLE67,90856446-A74E-F462-0152-8475C1E77738,2.028,0.511,1.165,-71.289,212.830,58.960,79.376,56.431,115.505,-218.44,-218.44,-206.507,100,31.00
2025-12-11 22:43:53.424,WT901BLE67,90856446-A74E-F462-0152-8475C1E77738,2.028,0.511,1.165,-71.289,212.830,58.960,79.376,56.431,115.505,-218.44,-218.44,-206.507,100,31.00
2025-12-11 22:43:53.429,WT901BLE67,90856446-A74E-F462-0152-8475C1E77738,2.028,0.511,1.165,-71.289,212.830,58.960,79.376,56.431,115.505,-218.44,-218.44,-206.507,100,31.00
2025-12-11 22:43:53.434,WT901BLE67,90856446-A74E-F462-0152-8475C1E77738,2.028,0.511,1.165,-71.289,212.830,58.960,79.376,56.431,115.505,-218.44,-218.44,-206.507,100,31.00
2025-12-11 22:43:53.439,WT901BLE67,90856446-A74E-F462-0152-8475C1E77738,2.028,0.511,1.165,-71.289,212.830,58.960,79.376,56.431,115.505,-218.44,-218.44,-206.507,100,31.00
2025-12-11 22:43:53.444,WT901BLE67,90856446-A74E-F462-0152-8475C1E77738,2.028,0.511,1.165,-71.289,212.830,58.960,79.376,56.431,115.505,-218.44,-218.44,-206.507,100,31.00
2025-12-11 22:43:53.449,WT901BLE67,90856446-A74E-F462-0152-8475C1E77738,2.028,0.511,1.165,-71.289,212.830,58.960,79.376,56.431,115.505,-218.44,-218.44,-206.507,100,31.00
2025-12-11 22:43:53.454,WT901BLE67,90856446-A74E-F462-0152-8475C1E77738,2.028,0.511,1.165,-71.289,212.830,58.960,79.376,56.431,115.505,-218.44,-218.44,-206.507,100,31.00
2025-12-11 22:43:53.459,WT901BLE67,90856446-A74E-F462-0152-8475C1E77738,2.028,0.511,1.165,-71.289,212.830,58.960,79.376,56.431,115.505,-218.44,-218.44,-206.507,100,31.00
2025-12-11 22:43:53.464,WT901BLE67,90856446-A74E-F462-0152-8475C1E77738,2.028,0.511,1.165,-71.289,212.830,58.960,79.376,56.431,115.505,-218.44,-218.44,-206.507,100,31.00
2025-12-11 22:43:53.471,WT901BLE67,90856446-A74E-F462-0152-8475C1E77738,2.028,0.511,1.165,-71.289,212.830,58.960,79.376,56.431,115.505,-218.44,-218.44,-206.507,100,31.00
2025-12-11 22:43:53.474,WT901BLE67,90856446-A74E-F462-0152-8475C1E77738,2.028,0.511,1.165,-71.289,212.830,58.960,79.376,56.431,115.505,-218.44,-218.44,-206.507,100,31.00
2025-12-11 22:43:53.479,WT901BLE67,90856446-A74E-F462-0152-8475C1E77738,2.028,0.511,1.165,-71.289,212.830,58.960,79.376,56.431,115.505,-218.44,-218.44,-206.507,100,31.00
2025-12-11 22:43:53.484,WT901BLE67,90856446-A74E-F462-0152-8475C1E77738,2.028,0.511,1.165,-71.289,212.830,58.960,79.376,56.431,115.505,-218.44,-218.44,-206.507,100,31.00
2025-12-11 22:43:53.489,WT901BLE67,90856446-A74E-F462-0152-8475C1E77738,2.331,0.481,1.123,-56.580,194.275,20.447,76.778,56.547,111.550,-218.44,-218.44,-206.507,100,31.00
2025-12-11 22:43:53.489,WT901BLE67,90856446-A74E-F462-0152-8475C1E77738,2.275,1.189,1.545,-198.608,164.734,145.630,84.370,52.707,127.727,-218.44,-218.44,-206.507,100,31.00
2025-12-11 22:43:53.489,WT901BLE67,90856446-A74E-F462-0152-8475C1E77738,2.271,1.026,1.411,-132.385,142.456,127.808,83.941,53.987,124.728,-218.44,-218.44,-206.507,100,31.00
2025-12-11 22:43:53.490,WT901BLE67,90856446-A74E-F462-0152-8475C1E77738,2.145,2.338,1.096,-428.955,253.235,161.499,82.073,46.961,144.152,-218.44,-218.44,-206.507,100,31.00
2025-12-11 22:43:53.490,WT901BLE67,90856446-A74E-F462-0152-8475C1E77738,2.145,2.338,1.096,-428.955,253.235,161.499,82.073,46.961,144.152,-218.44,-218.44,-206.507,100,31.00
2025-12-11 22:43:53.494,WT901BLE67,90856446-A74E-F462-0152-8475C1E77738,2.145,2.338,1.096,-428.955,253.235,161.499,82.073,46.961,144.152,-218.44,-218.44,-206.507,100,31.00
2025-12-11 22:43:53.499,WT901BLE67,90856446-A74E-F462-0152-8475C1E77738,2.145,2.338,1.096,-428.955,253.235,161.499,82.073,46.961,144.152,-218.44,-218.44,-206.507,100,31.00
2025-12-11 22:43:53.505,WT901BLE67,90856446-A74E-F462-0152-8475C1E77738,2.145,2.338,1.096,-428.955,253.235,161.499,82.073,46.961,144.152,-218.44,-218.44,-206.507,100,31.00
2025-12-11 22:43:53.509,WT901BLE67,90856446-A74E-F462-0152-8475C1E77738,2.145,2.338,1.096,-428.955,253.235,161.499,82.073,46.961,144.152,-218.44,-218.44,-206.507,100,31.00
2025-12-11 22:43:53.514,WT901BLE67,90856446-A74E-F462-0152-8475C1E77738,2.145,2.338,1.096,-428.955,253.235,161.499,82.073,46.961,144.152,-218.44,-218.44,-206.507,100,31.00
2025-12-11 22:43:53.518,WT901BLE67,90856446-A74E-F462-0152-8475C1E77738,2.861,2.014,1.305,-412.415,272.156,176.086,83.370,48.257,140.109,-218.44,-218.44,-206.507,100,31.00
2025-12-11 22:43:53.518,WT901BLE67,90856446-A74E-F462-0152-8475C1E77738,2.897,3.809,1.119,-557.617,243.835,252.136,72.510,40.946,159.060,-218.44,-218.44,-206.507,100,31.00
2025-12-11 22:43:53.521,WT901BLE67,90856446-A74E-F462-0152-8475C1E77738,2.897,3.809,1.119,-557.617,243.835,252.136,72.510,40.946,159.060,-218.44,-218.44,-206.507,100,31.00
2025-12-11 22:43:53.525,WT901BLE67,90856446-A74E-F462-0152-8475C1E77738,2.897,3.809,1.119,-557.617,243.835,252.136,72.510,40.946,159.060,-218.44,-218.44,-206.507,100,31.00
2025-12-11 22:43:53.529,WT901BLE67,90856446-A74E-F462-0152-8475C1E77738,2.897,3.809,1.119,-557.617,243.835,252.136,72.510,40.946,159.060,-218.44,-218.44,-206.507,100,31.00
2025-12-11 22:43:53.534,WT901BLE67,90856446-A74E-F462-0152-8475C1E77738,2.897,3.809,1.119,-557.617,243.835,252.136,72.510,40.946,159.060,-218.44,-218.44,-206.507,100,31.00
2025-12-11 22:43:53.540,WT901BLE67,90856446-A74E-F462-0152-8475C1E77738,2.897,3.809,1.119,-557.617,243.835,252.136,72.510,40.946,159.060,-218.44,-218.44,-206.507,100,31.00
2025-12-11 22:43:53.544,WT901BLE67,90856446-A74E-F462-0152-8475C1E77738,2.897,3.809,1.119,-557.617,243.835,252.136,72.510,40.946,159.060,-218.44,-218.44,-206.507,100,31.00
2025-12-11 22:43:53.549,WT901BLE67,90856446-A74E-F462-0152-8475C1E77738,2.897,3.809,1.119,-557.617,243.835,252.136,72.510,40.946,159.060,-218.44,-218.44,-206.507,100,31.00
2025-12-11 22:43:53.555,WT901BLE67,90856446-A74E-F462-0152-8475C1E77738,2.897,3.809,1.119,-557.617,243.835,252.136,72.510,40.946,159.060,-218.44,-218.44,-206.507,100,31.00
2025-12-11 22:43:53.559,WT901BLE67,90856446-A74E-F462-0152-8475C1E77738,2.897,3.809,1.119,-557.617,243.835,252.136,72.510,40.946,159.060,-218.44,-218.44,-206.507,100,31.00
2025-12-11 22:43:53.564,WT901BLE67,90856446-A74E-F462-0152-8475C1E77738,2.897,3.809,1.119,-557.617,243.835,252.136,72.510,40.946,159.060,-218.44,-218.44,-206.507,100,31.00
2025-12-11 22:43:53.571,WT901BLE67,90856446-A74E-F462-0152-8475C1E77738,2.897,3.809,1.119,-557.617,243.835,252.136,72.510,40.946,159.060,-218.44,-218.44,-206.507,100,31.00
2025-12-11 22:43:53.574,WT901BLE67,90856446-A74E-F462-0152-8475C1E77738,2.897,3.809,1.119,-557.617,243.835,252.136,72.510,40.946,159.060,-218.44,-218.44,-206.507,100,31.00
2025-12-11 22:43:53.579,WT901BLE67,90856446-A74E-F462-0152-8475C1E77738,2.770,3.382,1.092,-515.076,226.135,225.708,75.350,42.682,154.995,-218.44,-218.44,-206.507,100,31.00
2025-12-11 22:43:53.579,WT901BLE67,90856446-A74E-F462-0152-8475C1E77738,2.789,6.104,1.608,-776.367,287.598,315.735,56.255,34.854,177.506,-218.44,-218.44,-206.507,100,31.00
2025-12-11 22:43:53.579,WT901BLE67,90856446-A74E-F462-0152-8475C1E77738,2.789,6.104,1.608,-776.367,287.598,315.735,56.255,34.854,177.506,-218.44,-218.44,-206.507,100,31.00
2025-12-11 22:43:53.584,WT901BLE67,90856446-A74E-F462-0152-8475C1E77738,2.789,6.104,1.608,-776.367,287.598,315.735,56.255,34.854,177.506,-218.44,-218.44,-206.507,100,31.00
2025-12-11 22:43:53.591,WT901BLE67,90856446-A74E-F462-0152-8475C1E77738,2.789,6.104,1.608,-776.367,287.598,315.735,56.255,34.854,177.506,-218.44,-218.44,-206.507,100,31.00
2025-12-11 22:43:53.594,WT901BLE67,90856446-A74E-F462-0152-8475C1E77738,2.789,6.104,1.608,-776.367,287.598,315.735,56.255,34.854,177.506,-218.44,-218.44,-206.507,100,31.00
2025-12-11 22:43:53.599,WT901BLE67,90856446-A74E-F462-0152-8475C1E77738,2.789,6.104,1.608,-776.367,287.598,315.735,56.255,34.854,177.506,-218.44,-218.44,-206.507,100,31.00
2025-12-11 22:43:53.605,WT901BLE67,90856446-A74E-F462-0152-8475C1E77738,2.789,6.104,1.608,-776.367,287.598,315.735,56.255,34.854,177.506,-218.44,-218.44,-206.507,100,31.00
2025-12-11 22:43:53.608,WT901BLE67,90856446-A74E-F462-0152-8475C1E77738,2.983,5.397,1.474,-720.337,268.433,305.237,61.100,36.063,172.518,-218.44,-218.44,-206.507,100,31.00
2025-12-11 22:43:53.608,WT901BLE67,90856446-A74E-F462-0152-8475C1E77738,3.108,8.384,2.742,-999.023,176.270,328.064,30.103,32.712,-163.872,-218.44,-218.44,-206.507,100,31.00
2025-12-11 22:43:53.609,WT901BLE67,90856446-A74E-F462-0152-8475C1E77738,3.108,8.384,2.742,-999.023,176.270,328.064,30.103,32.712,-163.872,-218.44,-218.44,-206.507,100,31.00
2025-12-11 22:43:53.614,WT901BLE67,90856446-A74E-F462-0152-8475C1E77738,3.108,8.384,2.742,-999.023,176.270,328.064,30.103,32.712,-163.872,-218.44,-218.44,-206.507,100,31.00
2025-12-11 22:43:53.621,WT901BLE67,90856446-A74E-F462-0152-8475C1E77738,3.108,8.384,2.742,-999.023,176.270,328.064,30.103,32.712,-163.872,-218.44,-218.44,-206.507,100,31.00
2025-12-11 22:43:53.625,WT901BLE67,90856446-A74E-F462-0152-8475C1E77738,3.108,8.384,2.742,-999.023,176.270,328.064,30.103,32.712,-163.872,-218.44,-218.44,-206.507,100,31.00
2025-12-11 22:43:53.629,WT901BLE67,90856446-A74E-F462-0152-8475C1E77738,3.108,8.384,2.742,-999.023,176.270,328.064,30.103,32.712,-163.872,-218.44,-218.44,-206.507,100,31.00
2025-12-11 22:43:53.634,WT901BLE67,90856446-A74E-F462-0152-8475C1E77738,3.108,8.384,2.742,-999.023,176.270,328.064,30.103,32.712,-163.872,-218.44,-218.44,-206.507,100,31.00
2025-12-11 22:43:53.640,WT901BLE67,90856446-A74E-F462-0152-8475C1E77738,2.304,7.797,2.371,-942.261,215.393,316.772,37.656,33.069,-168.311,-218.44,-218.44,-206.507,100,31.00
2025-12-11 22:43:53.640,WT901BLE67,90856446-A74E-F462-0152-8475C1E77738,2.528,10.812,4.123,-1205.750,66.711,382.324,-5.872,33.228,-146.442,-218.44,-218.44,-206.507,100,31.00
2025-12-11 22:43:53.640,WT901BLE67,90856446-A74E-F462-0152-8475C1E77738,2.528,10.812,4.123,-1205.750,66.711,382.324,-5.872,33.228,-146.442,-218.44,-218.44,-206.507,100,31.00
2025-12-11 22:43:53.644,WT901BLE67,90856446-A74E-F462-0152-8475C1E77738,2.528,10.812,4.123,-1205.750,66.711,382.324,-5.872,33.228,-146.442,-218.44,-218.44,-206.507,100,31.00
2025-12-11 22:43:53.649,WT901BLE67,90856446-A74E-F462-0152-8475C1E77738,2.528,10.812,4.123,-1205.750,66.711,382.324,-5.872,33.228,-146.442,-218.44,-218.44,-206.507,100,31.00
2025-12-11 22:43:53.655,WT901BLE67,90856446-A74E-F462-0152-8475C1E77738,2.528,10.812,4.123,-1205.750,66.711,382.324,-5.872,33.228,-146.442,-218.44,-218.44,-206.507,100,31.00
2025-12-11 22:43:53.659,WT901BLE67,90856446-A74E-F462-0152-8475C1E77738,2.528,10.812,4.123,-1205.750,66.711,382.324,-5.872,33.228,-146.442,-218.44,-218.44,-206.507,100,31.00
2025-12-11 22:43:53.664,WT901BLE67,90856446-A74E-F462-0152-8475C1E77738,2.528,10.812,4.123,-1205.750,66.711,382.324,-5.872,33.228,-146.442,-218.44,-218.44,-206.507,100,31.00
2025-12-11 22:43:53.671,WT901BLE67,90856446-A74E-F462-0152-8475C1E77738,2.528,10.812,4.123,-1205.750,66.711,382.324,-5.872,33.228,-146.442,-218.44,-218.44,-206.507,100,31.00
2025-12-11 22:43:53.674,WT901BLE67,90856446-A74E-F462-0152-8475C1E77738,2.528,10.812,4.123,-1205.750,66.711,382.324,-5.872,33.228,-146.442,-218.44,-218.44,-206.507,100,31.00
2025-12-11 22:43:53.679,WT901BLE67,90856446-A74E-F462-0152-8475C1E77738,2.528,10.812,4.123,-1205.750,66.711,382.324,-5.872,33.228,-146.442,-218.44,-218.44,-206.507,100,31.00
2025-12-11 22:43:53.684,WT901BLE67,90856446-A74E-F462-0152-8475C1E77738,2.528,10.812,4.123,-1205.750,66.711,382.324,-5.872,33.228,-146.442,-218.44,-218.44,-206.507,100,31.00
2025-12-11 22:43:53.690,WT901BLE67,90856446-A74E-F462-0152-8475C1E77738,2.528,10.812,4.123,-1205.750,66.711,382.324,-5.872,33.228,-146.442,-218.44,-218.44,-206.507,100,31.00
2025-12-11 22:43:53.694,WT901BLE67,90856446-A74E-F462-0152-8475C1E77738,2.528,10.812,4.123,-1205.750,66.711,382.324,-5.872,33.228,-146.442,-218.44,-218.44,-206.507,100,31.00
2025-12-11 22:43:53.698,WT901BLE67,90856446-A74E-F462-0152-8475C1E77738,0.822,10.392,3.841,-1168.396,73.181,362.610,3.719,32.487,-150.963,-218.44,-218.44,-206.507,100,31.00
2025-12-11 22:43:53.698,WT901BLE67,90856446-A74E-F462-0152-8475C1E77738,1.275,11.164,4.900,-1328.918,-36.194,363.098,-47.192,41.440,-129.408,-218.44,-218.44,-206.507,100,31.00
2025-12-11 22:43:53.699,WT901BLE67,90856446-A74E-F462-0152-8475C1E77738,1.275,11.164,4.900,-1328.918,-36.194,363.098,-47.192,41.440,-129.408,-218.44,-218.44,-206.507,100,31.00
2025-12-11 22:43:53.706,WT901BLE67,90856446-A74E-F462-0152-8475C1E77738,1.275,11.164,4.900,-1328.918,-36.194,363.098,-47.192,41.440,-129.408,-218.44,-218.44,-206.507,100,31.00
2025-12-11 22:43:53.710,WT901BLE67,90856446-A74E-F462-0152-8475C1E77738,1.275,11.164,4.900,-1328.918,-36.194,363.098,-47.192,41.440,-129.408,-218.44,-218.44,-206.507,100,31.00
2025-12-11 22:43:53.714,WT901BLE67,90856446-A74E-F462-0152-8475C1E77738,1.275,11.164,4.900,-1328.918,-36.194,363.098,-47.192,41.440,-129.408,-218.44,-218.44,-206.507,100,31.00
2025-12-11 22:43:53.721,WT901BLE67,90856446-A74E-F462-0152-8475C1E77738,1.275,11.164,4.900,-1328.918,-36.194,363.098,-47.192,41.440,-129.408,-218.44,-218.44,-206.507,100,31.00
2025-12-11 22:43:53.724,WT901BLE67,90856446-A74E-F462-0152-8475C1E77738,1.275,11.164,4.900,-1328.918,-36.194,363.098,-47.192,41.440,-129.408,-218.44,-218.44,-206.507,100,31.00
2025-12-11 22:43:53.729,WT901BLE67,90856446-A74E-F462-0152-8475C1E77738,1.275,11.164,4.900,-1328.918,-36.194,363.098,-47.192,41.440,-129.408,-218.44,-218.44,-206.507,100,31.00
2025-12-11 22:43:53.732,WT901BLE67,90856446-A74E-F462-0152-8475C1E77738,-0.040,10.967,4.817,-1312.256,47.913,409.546,-36.409,39.221,-133.259,-218.44,-218.44,-206.507,100,31.00
2025-12-11 22:43:53.733,WT901BLE67,90856446-A74E-F462-0152-8475C1E77738,0.095,9.757,3.324,-1185.303,-118.103,287.659,-87.418,51.042,-116.461,-218.44,-218.44,-206.507,100,31.00
2025-12-11 22:43:53.734,WT901BLE67,90856446-A74E-F462-0152-8475C1E77738,0.095,9.757,3.324,-1185.303,-118.103,287.659,-87.418,51.042,-116.461,-218.44,-218.44,-206.507,100,31.00
2025-12-11 22:43:53.741,WT901BLE67,90856446-A74E-F462-0152-8475C1E77738,0.095,9.757,3.324,-1185.303,-118.103,287.659,-87.418,51.042,-116.461,-218.44,-218.44,-206.507,100,31.00
2025-12-11 22:43:53.745,WT901BLE67,90856446-A74E-F462-0152-8475C1E77738,0.095,9.757,3.324,-1185.303,-118.103,287.659,-87.418,51.042,-116.461,-218.44,-218.44,-206.507,100,31.00
2025-12-11 22:43:53.749,WT901BLE67,90856446-A74E-F462-0152-8475C1E77738,0.095,9.757,3.324,-1185.303,-118.103,287.659,-87.418,51.042,-116.461,-218.44,-218.44,-206.507,100,31.00
2025-12-11 22:43:53.755,WT901BLE67,90856446-A74E-F462-0152-8475C1E77738,0.095,9.757,3.324,-1185.303,-118.103,287.659,-87.418,51.042,-116.461,-218.44,-218.44,-206.507,100,31.00
2025-12-11 22:43:53.758,WT901BLE67,90856446-A74E-F462-0152-8475C1E77738,-0.150,10.432,3.823,-1216.675,-145.691,295.715,-77.399,48.362,-118.883,-218.44,-218.44,-206.507,100,31.00
2025-12-11 22:43:53.759,WT901BLE67,90856446-A74E-F462-0152-8475C1E77738,-0.221,6.173,-0.646,-912.598,-177.856,62.927,-125.425,59.106,-111.116,-218.44,-218.44,-206.507,100,31.00
2025-12-11 22:43:53.759,WT901BLE67,90856446-A74E-F462-0152-8475C1E77738,-0.221,6.173,-0.646,-912.598,-177.856,62.927,-125.425,59.106,-111.116,-218.44,-218.44,-206.507,100,31.00
2025-12-11 22:43:53.764,WT901BLE67,90856446-A74E-F462-0152-8475C1E77738,-0.221,6.173,-0.646,-912.598,-177.856,62.927,-125.425,59.106,-111.116,-218.44,-218.44,-206.507,100,31.00
2025-12-11 22:43:53.771,WT901BLE67,90856446-A74E-F462-0152-8475C1E77738,-0.221,6.173,-0.646,-912.598,-177.856,62.927,-125.425,59.106,-111.116,-218.44,-218.44,-206.507,100,31.00
2025-12-11 22:43:53.775,WT901BLE67,90856446-A74E-F462-0152-8475C1E77738,-0.221,6.173,-0.646,-912.598,-177.856,62.927,-125.425,59.106,-111.116,-218.44,-218.44,-206.507,100,31.00
2025-12-11 22:43:53.779,WT901BLE67,90856446-A74E-F462-0152-8475C1E77738,-0.221,6.173,-0.646,-912.598,-177.856,62.927,-125.425,59.106,-111.116,-218.44,-218.44,-206.507,100,31.00
2025-12-11 22:43:53.784,WT901BLE67,90856446-A74E-F462-0152-8475C1E77738,-0.221,6.173,-0.646,-912.598,-177.856,62.927,-125.425,59.106,-111.116,-218.44,-218.44,-206.507,100,31.00
2025-12-11 22:43:53.790,WT901BLE67,90856446-A74E-F462-0152-8475C1E77738,-0.221,6.173,-0.646,-912.598,-177.856,62.927,-125.425,59.106,-111.116,-218.44,-218.44,-206.507,100,31.00
2025-12-11 22:43:53.794,WT901BLE67,90856446-A74E-F462-0152-8475C1E77738,-0.221,6.173,-0.646,-912.598,-177.856,62.927,-125.425,59.106,-111.116,-218.44,-218.44,-206.507,100,31.00
2025-12-11 22:43:53.799,WT901BLE67,90856446-A74E-F462-0152-8475C1E77738,-0.221,6.173,-0.646,-912.598,-177.856,62.927,-125.425,59.106,-111.116,-218.44,-218.44,-206.507,100,31.00
2025-12-11 22:43:53.805,WT901BLE67,90856446-A74E-F462-0152-8475C1E77738,-0.221,6.173,-0.646,-912.598,-177.856,62.927,-125.425,59.106,-111.116,-218.44,-218.44,-206.507,100,31.00
2025-12-11 22:43:53.809,WT901BLE67,90856446-A74E-F462-0152-8475C1E77738,-0.221,6.173,-0.646,-912.598,-177.856,62.927,-125.425,59.106,-111.116,-218.44,-218.44,-206.507,100,31.00
2025-12-11 22:43:53.814,WT901BLE67,90856446-A74E-F462-0152-8475C1E77738,-0.221,6.173,-0.646,-912.598,-177.856,62.927,-125.425,59.106,-111.116,-218.44,-218.44,-206.507,100,31.00
2025-12-11 22:43:53.818,WT901BLE67,90856446-A74E-F462-0152-8475C1E77738,-0.007,7.295,0.312,-1047.546,-124.146,129.761,-118.059,57.618,-113.264,-218.44,-218.44,-206.507,100,31.00
2025-12-11 22:43:53.819,WT901BLE67,90856446-A74E-F462-0152-8475C1E77738,-0.111,2.433,-2.793,-396.301,-207.581,68.481,-137.873,65.627,-99.272,-218.44,-218.44,-206.507,100,31.00
2025-12-11 22:43:53.821,WT901BLE67,90856446-A74E-F462-0152-8475C1E77738,-0.111,2.433,-2.793,-396.301,-207.581,68.481,-137.873,65.627,-99.272,-218.44,-218.44,-206.507,100,31.00
2025-12-11 22:43:53.826,WT901BLE67,90856446-A74E-F462-0152-8475C1E77738,-0.111,2.433,-2.793,-396.301,-207.581,68.481,-137.873,65.627,-99.272,-218.44,-218.44,-206.507,100,31.00
2025-12-11 22:43:53.829,WT901BLE67,90856446-A74E-F462-0152-8475C1E77738,-0.111,2.433,-2.793,-396.301,-207.581,68.481,-137.873,65.627,-99.272,-218.44,-218.44,-206.507,100,31.00
2025-12-11 22:43:53.834,WT901BLE67,90856446-A74E-F462-0152-8475C1E77738,-0.111,2.433,-2.793,-396.301,-207.581,68.481,-137.873,65.627,-99.272,-218.44,-218.44,-206.507,100,31.00
2025-12-11 22:43:53.840,WT901BLE67,90856446-A74E-F462-0152-8475C1E77738,-0.111,2.433,-2.793,-396.301,-207.581,68.481,-137.873,65.627,-99.272,-218.44,-218.44,-206.507,100,31.00
2025-12-11 22:43:53.844,WT901BLE67,90856446-A74E-F462-0152-8475C1E77738,-0.111,2.433,-2.793,-396.301,-207.581,68.481,-137.873,65.627,-99.272,-218.44,-218.44,-206.507,100,31.00
2025-12-11 22:43:53.848,WT901BLE67,90856446-A74E-F462-0152-8475C1E77738,-1.583,3.208,-2.571,-505.493,-244.263,2.991,-135.884,63.666,-101.530,-218.44,-218.44,-206.507,100,31.00
2025-12-11 22:43:53.849,WT901BLE67,90856446-A74E-F462-0152-8475C1E77738,-1.583,3.208,-2.571,-505.493,-244.263,2.991,-135.884,63.666,-101.530,-218.44,-218.44,-206.507,100,31.00
2025-12-11 22:43:53.856,WT901BLE67,90856446-A74E-F462-0152-8475C1E77738,-1.583,3.208,-2.571,-505.493,-244.263,2.991,-135.884,63.666,-101.530,-218.44,-218.44,-206.507,100,31.00
2025-12-11 22:43:53.860,WT901BLE67,90856446-A74E-F462-0152-8475C1E77738,-1.583,3.208,-2.571,-505.493,-244.263,2.991,-135.884,63.666,-101.530,-218.44,-218.44,-206.507,100,31.00
2025-12-11 22:43:53.864,WT901BLE67,90856446-A74E-F462-0152-8475C1E77738,-1.583,3.208,-2.571,-505.493,-244.263,2.991,-135.884,63.666,-101.530,-218.44,-218.44,-206.507,100,31.00
2025-12-11 22:43:53.871,WT901BLE67,90856446-A74E-F462-0152-8475C1E77738,-1.583,3.208,-2.571,-505.493,-244.263,2.991,-135.884,63.666,-101.530,-218.44,-218.44,-206.507,100,31.00
2025-12-11 22:43:53.874,WT901BLE67,90856446-A74E-F462-0152-8475C1E77738,-1.583,3.208,-2.571,-505.493,-244.263,2.991,-135.884,63.666,-101.530,-218.44,-218.44,-206.507,100,31.00
2025-12-11 22:43:53.879,WT901BLE67,90856446-A74E-F462-0152-8475C1E77738,0.213,0.179,-0.722,-139.954,42.358,10.620,-151.425,69.077,-105.216,12.12,12.94,20.76,100,31.00
2025-12-11 22:43:53.879,WT901BLE67,90856446-A74E-F462-0152-8475C1E77738,-0.328,-0.197,-0.259,-28.381,4.700,-203.430,-146.915,64.424,-95.828,12.12,12.94,20.76,100,31.00
2025-12-11 22:43:53.879,WT901BLE67,90856446-A74E-F462-0152-8475C1E77738,-0.328,-0.197,-0.259,-28.381,4.700,-203.430,-146.915,64.424,-95.828,12.12,12.94,20.76,100,31.00
2025-12-11 22:43:53.884,WT901BLE67,90856446-A74E-F462-0152-8475C1E77738,-0.328,-0.197,-0.259,-28.381,4.700,-203.430,-146.915,64.424,-95.828,12.12,12.94,20.76,100,31.00
2025-12-11 22:43:53.890,WT901BLE67,90856446-A74E-F462-0152-8475C1E77738,-0.328,-0.197,-0.259,-28.381,4.700,-203.430,-146.915,64.424,-95.828,12.12,12.94,20.76,100,31.00
2025-12-11 22:43:53.894,WT901BLE67,90856446-A74E-F462-0152-8475C1E77738,-0.328,-0.197,-0.259,-28.381,4.700,-203.430,-146.915,64.424,-95.828,12.12,12.94,20.76,100,31.00
2025-12-11 22:43:53.899,WT901BLE67,90856446-A74E-F462-0152-8475C1E77738,-0.328,-0.197,-0.259,-28.381,4.700,-203.430,-146.915,64.424,-95.828,12.12,12.94,20.76,100,31.00
2025-12-11 22:43:53.905,WT901BLE67,90856446-A74E-F462-0152-8475C1E77738,-0.328,-0.197,-0.259,-28.381,4.700,-203.430,-146.915,64.424,-95.828,12.12,12.94,20.76,100,31.00
2025-12-11 22:43:53.909,WT901BLE67,90856446-A74E-F462-0152-8475C1E77738,-0.328,-0.197,-0.259,-28.381,4.700,-203.430,-146.915,64.424,-95.828,12.12,12.94,20.76,100,31.00
2025-12-11 22:43:53.914,WT901BLE67,90856446-A74E-F462-0152-8475C1E77738,-0.328,-0.197,-0.259,-28.381,4.700,-203.430,-146.915,64.424,-95.828,12.12,12.94,20.76,100,31.00
2025-12-11 22:43:53.921,WT901BLE67,90856446-A74E-F462-0152-8475C1E77738,-0.328,-0.197,-0.259,-28.381,4.700,-203.430,-146.915,64.424,-95.828,12.12,12.94,20.76,100,31.00
2025-12-11 22:43:53.924,WT901BLE67,90856446-A74E-F462-0152-8475C1E77738,-0.328,-0.197,-0.259,-28.381,4.700,-203.430,-146.915,64.424,-95.828,12.12,12.94,20.76,100,31.00
2025-12-11 22:43:53.929,WT901BLE67,90856446-A74E-F462-0152-8475C1E77738,-0.328,-0.197,-0.259,-28.381,4.700,-203.430,-146.915,64.424,-95.828,12.12,12.94,20.76,100,31.00
2025-12-11 22:43:53.934,WT901BLE67,90856446-A74E-F462-0152-8475C1E77738,-0.328,-0.197,-0.259,-28.381,4.700,-203.430,-146.915,64.424,-95.828,12.12,12.94,20.76,100,31.00
2025-12-11 22:43:53.940,WT901BLE67,90856446-A74E-F462-0152-8475C1E77738,1.092,-0.154,-0.165,-72.693,41.138,-182.129,-150.244,65.533,-99.844,12.12,12.94,20.76,100,31.00
2025-12-11 22:43:53.940,WT901BLE67,90856446-A74E-F462-0152-8475C1E77738,1.043,-0.791,-0.765,82.397,-60.547,-142.029,-131.468,61.490,-80.810,12.12,12.94,20.76,100,31.00
2025-12-11 22:43:53.940,WT901BLE67,90856446-A74E-F462-0152-8475C1E77738,1.043,-0.791,-0.765,82.397,-60.547,-142.029,-131.468,61.490,-80.810,12.12,12.94,20.76,100,31.00
2025-12-11 22:43:53.945,WT901BLE67,90856446-A74E-F462-0152-8475C1E77738,1.043,-0.791,-0.765,82.397,-60.547,-142.029,-131.468,61.490,-80.810,12.12,12.94,20.76,100,31.00
2025-12-11 22:43:53.949,WT901BLE67,90856446-A74E-F462-0152-8475C1E77738,1.043,-0.791,-0.765,82.397,-60.547,-142.029,-131.468,61.490,-80.810,12.12,12.94,20.76,100,31.00
2025-12-11 22:43:53.956,WT901BLE67,90856446-A74E-F462-0152-8475C1E77738,1.043,-0.791,-0.765,82.397,-60.547,-142.029,-131.468,61.490,-80.810,12.12,12.94,20.76,100,31.00
2025-12-11 22:43:53.959,WT901BLE67,90856446-A74E-F462-0152-8475C1E77738,1.043,-0.791,-0.765,82.397,-60.547,-142.029,-131.468,61.490,-80.810,12.12,12.94,20.76,100,31.00
2025-12-11 22:43:53.964,WT901BLE67,90856446-A74E-F462-0152-8475C1E77738,1.043,-0.791,-0.765,82.397,-60.547,-142.029,-131.468,61.490,-80.810,12.12,12.94,20.76,100,31.00
2025-12-11 22:43:53.967,WT901BLE67,90856446-A74E-F462-0152-8475C1E77738,0.989,-0.664,-0.632,74.585,-70.801,-172.485,-134.940,62.122,-83.815,12.12,12.94,20.76,100,31.00
2025-12-11 22:43:53.968,WT901BLE67,90856446-A74E-F462-0152-8475C1E77738,1.031,-1.091,-0.777,51.147,74.890,-4.822,-128.589,59.046,-80.244,12.12,12.94,20.76,100,31.00
2025-12-11 22:43:53.971,WT901BLE67,90856446-A74E-F462-0152-8475C1E77738,1.031,-1.091,-0.777,51.147,74.890,-4.822,-128.589,59.046,-80.244,12.12,12.94,20.76,100,31.00
2025-12-11 22:43:53.975,WT901BLE67,90856446-A74E-F462-0152-8475C1E77738,1.031,-1.091,-0.777,51.147,74.890,-4.822,-128.589,59.046,-80.244,12.12,12.94,20.76,100,31.00
2025-12-11 22:43:53.979,WT901BLE67,90856446-A74E-F462-0152-8475C1E77738,1.031,-1.091,-0.777,51.147,74.890,-4.822,-128.589,59.046,-80.244,12.12,12.94,20.76,100,31.00
2025-12-11 22:43:53.984,WT901BLE67,90856446-A74E-F462-0152-8475C1E77738,1.031,-1.091,-0.777,51.147,74.890,-4.822,-128.589,59.046,-80.244,12.12,12.94,20.76,100,31.00
2025-12-11 22:43:53.990,WT901BLE67,90856446-A74E-F462-0152-8475C1E77738,1.031,-1.091,-0.777,51.147,74.890,-4.822,-128.589,59.046,-80.244,12.12,12.94,20.76,100,31.00
2025-12-11 22:43:53.994,WT901BLE67,90856446-A74E-F462-0152-8475C1E77738,1.031,-1.091,-0.777,51.147,74.890,-4.822,-128.589,59.046,-80.244,12.12,12.94,20.76,100,31.00
2025-12-11 22:43:53.999,WT901BLE67,90856446-A74E-F462-0152-8475C1E77738,1.031,-1.091,-0.777,51.147,74.890,-4.822,-128.589,59.046,-80.244,12.12,12.94,20.76,100,31.00
2025-12-11 22:43:54.005,WT901BLE67,90856446-A74E-F462-0152-8475C1E77738,1.031,-1.091,-0.777,51.147,74.890,-4.822,-128.589,59.046,-80.244,12.12,12.94,20.76,100,31.00
2025-12-11 22:43:54.008,WT901BLE67,90856446-A74E-F462-0152-8475C1E77738,1.031,-1.091,-0.777,51.147,74.890,-4.822,-128.589,59.046,-80.244,12.12,12.94,20.76,100,31.00
2025-12-11 22:43:54.014,WT901BLE67,90856446-A74E-F462-0152-8475C1E77738,1.031,-1.091,-0.777,51.147,74.890,-4.822,-128.589,59.046,-80.244,12.12,12.94,20.76,100,31.00
2025-12-11 22:43:54.021,WT901BLE67,90856446-A74E-F462-0152-8475C1E77738,1.031,-1.091,-0.777,51.147,74.890,-4.822,-128.589,59.046,-80.244,12.12,12.94,20.76,100,31.00
2025-12-11 22:43:54.024,WT901BLE67,90856446-A74E-F462-0152-8475C1E77738,1.031,-1.091,-0.777,51.147,74.890,-4.822,-128.589,59.046,-80.244,12.12,12.94,20.76,100,31.00
2025-12-11 22:43:54.028,WT901BLE67,90856446-A74E-F462-0152-8475C1E77738,0.525,-1.028,-0.845,53.589,62.561,-31.982,-128.199,59.557,-79.184,12.12,12.94,20.76,100,31.00
2025-12-11 22:43:54.028,WT901BLE67,90856446-A74E-F462-0152-8475C1E77738,0.656,-1.509,-0.575,48.828,56.396,20.508,-130.721,57.722,-85.117,12.12,12.94,20.76,100,31.00
2025-12-11 22:43:54.029,WT901BLE67,90856446-A74E-F462-0152-8475C1E77738,0.656,-1.509,-0.575,48.828,56.396,20.508,-130.721,57.722,-85.117,12.12,12.94,20.76,100,31.00
2025-12-11 22:43:54.034,WT901BLE67,90856446-A74E-F462-0152-8475C1E77738,0.656,-1.509,-0.575,48.828,56.396,20.508,-130.721,57.722,-85.117,12.12,12.94,20.76,100,31.00
2025-12-11 22:43:54.040,WT901BLE67,90856446-A74E-F462-0152-8475C1E77738,0.656,-1.509,-0.575,48.828,56.396,20.508,-130.721,57.722,-85.117,12.12,12.94,20.76,100,31.00
2025-12-11 22:43:54.044,WT901BLE67,90856446-A74E-F462-0152-8475C1E77738,0.656,-1.509,-0.575,48.828,56.396,20.508,-130.721,57.722,-85.117,12.12,12.94,20.76,100,31.00
2025-12-11 22:43:54.049,WT901BLE67,90856446-A74E-F462-0152-8475C1E77738,0.656,-1.509,-0.575,48.828,56.396,20.508,-130.721,57.722,-85.117,12.12,12.94,20.76,100,31.00
2025-12-11 22:43:54.055,WT901BLE67,90856446-A74E-F462-0152-8475C1E77738,0.656,-1.509,-0.575,48.828,56.396,20.508,-130.721,57.722,-85.117,12.12,12.94,20.76,100,31.00
2025-12-11 22:43:54.059,WT901BLE67,90856446-A74E-F462-0152-8475C1E77738,0.656,-1.509,-0.575,48.828,56.396,20.508,-130.721,57.722,-85.117,12.12,12.94,20.76,100,31.00
2025-12-11 22:43:54.064,WT901BLE67,90856446-A74E-F462-0152-8475C1E77738,0.656,-1.509,-0.575,48.828,56.396,20.508,-130.721,57.722,-85.117,12.12,12.94,20.76,100,31.00
2025-12-11 22:43:54.071,WT901BLE67,90856446-A74E-F462-0152-8475C1E77738,0.656,-1.509,-0.575,48.828,56.396,20.508,-130.721,57.722,-85.117,12.12,12.94,20.76,100,31.00
2025-12-11 22:43:54.074,WT901BLE67,90856446-A74E-F462-0152-8475C1E77738,0.656,-1.509,-0.575,48.828,56.396,20.508,-130.721,57.722,-85.117,12.12,12.94,20.76,100,31.00
2025-12-11 22:43:54.079,WT901BLE67,90856446-A74E-F462-0152-8475C1E77738,0.656,-1.509,-0.575,48.828,56.396,20.508,-130.721,57.722,-85.117,12.12,12.94,20.76,100,31.00
2025-12-11 22:43:54.084,WT901BLE67,90856446-A74E-F462-0152-8475C1E77738,0.656,-1.509,-0.575,48.828,56.396,20.508,-130.721,57.722,-85.117,12.12,12.94,20.76,100,31.00
2025-12-11 22:43:54.089,WT901BLE67,90856446-A74E-F462-0152-8475C1E77738,0.349,-1.398,-0.548,45.715,67.871,15.808,-130.287,57.947,-84.045,12.12,12.94,20.76,100,31.00
2025-12-11 22:43:54.090,WT901BLE67,90856446-A74E-F462-0152-8475C1E77738,0.336,-1.537,-0.520,82.275,24.536,-24.963,-129.661,56.662,-86.973,12.12,12.94,20.76,100,31.00
2025-12-11 22:43:54.090,WT901BLE67,90856446-A74E-F462-0152-8475C1E77738,0.449,-1.560,-0.553,76.294,25.391,-12.878,-130.435,57.008,-86.918,12.12,12.94,20.76,100,31.00
2025-12-11 22:43:54.090,WT901BLE67,90856446-A74E-F462-0152-8475C1E77738,0.424,-1.373,-0.474,66.040,96.130,-62.500,-127.601,53.608,-88.055,12.12,12.94,20.76,100,31.00
2025-12-11 22:43:54.090,WT901BLE67,90856446-A74E-F462-0152-8475C1E77738,0.424,-1.373,-0.474,66.040,96.130,-62.500,-127.601,53.608,-88.055,12.12,12.94,20.76,100,31.00
2025-12-11 22:43:54.095,WT901BLE67,90856446-A74E-F462-0152-8475C1E77738,0.424,-1.373,-0.474,66.040,96.130,-62.500,-127.601,53.608,-88.055,12.12,12.94,20.76,100,31.00
2025-12-11 22:43:54.099,WT901BLE67,90856446-A74E-F462-0152-8475C1E77738,0.424,-1.373,-0.474,66.040,96.130,-62.500,-127.601,53.608,-88.055,12.12,12.94,20.76,100,31.00
2025-12-11 22:43:54.105,WT901BLE67,90856446-A74E-F462-0152-8475C1E77738,0.424,-1.373,-0.474,66.040,96.130,-62.500,-127.601,53.608,-88.055,12.12,12.94,20.76,100,31.00
2025-12-11 22:43:54.109,WT901BLE67,90856446-A74E-F462-0152-8475C1E77738,0.424,-1.373,-0.474,66.040,96.130,-62.500,-127.601,53.608,-88.055,12.12,12.94,20.76,100,31.00
2025-12-11 22:43:54.114,WT901BLE67,90856446-A74E-F462-0152-8475C1E77738,0.424,-1.373,-0.474,66.040,96.130,-62.500,-127.601,53.608,-88.055,12.12,12.94,20.76,100,31.00
2025-12-11 22:43:54.121,WT901BLE67,90856446-A74E-F462-0152-8475C1E77738,0.424,-1.373,-0.474,66.040,96.130,-62.500,-127.601,53.608,-88.055,12.12,12.94,20.76,100,31.00
2025-12-11 22:43:54.124,WT901BLE67,90856446-A74E-F462-0152-8475C1E77738,0.424,-1.373,-0.474,66.040,96.130,-62.500,-127.601,53.608,-88.055,12.12,12.94,20.76,100,31.00
2025-12-11 22:43:54.129,WT901BLE67,90856446-A74E-F462-0152-8475C1E77738,0.424,-1.373,-0.474,66.040,96.130,-62.500,-127.601,53.608,-88.055,12.12,12.94,20.76,100,31.00
2025-12-11 22:43:54.134,WT901BLE67,90856446-A74E-F462-0152-8475C1E77738,0.424,-1.373,-0.474,66.040,96.130,-62.500,-127.601,53.608,-88.055,12.12,12.94,20.76,100,31.00
2025-12-11 22:43:54.140,WT901BLE67,90856446-A74E-F462-0152-8475C1E77738,0.424,-1.373,-0.474,66.040,96.130,-62.500,-127.601,53.608,-88.055,12.12,12.94,20.76,100,31.00
2025-12-11 22:43:54.144,WT901BLE67,90856446-A74E-F462-0152-8475C1E77738,0.424,-1.373,-0.474,66.040,96.130,-62.500,-127.601,53.608,-88.055,12.12,12.94,20.76,100,31.00
2025-12-11 22:43:54.148,WT901BLE67,90856446-A74E-F462-0152-8475C1E77738,0.575,-1.423,-0.484,68.604,68.542,-57.251,-127.749,54.679,-87.418,12.12,12.94,20.76,100,31.00
2025-12-11 22:43:54.149,WT901BLE67,90856446-A74E-F462-0152-8475C1E77738,0.533,-1.396,-0.561,83.008,66.711,-71.472,-125.782,49.274,-89.692,12.12,12.94,20.76,100,31.00
2025-12-11 22:43:54.149,WT901BLE67,90856446-A74E-F462-0152-8475C1E77738,0.533,-1.396,-0.561,83.008,66.711,-71.472,-125.782,49.274,-89.692,12.12,12.94,20.76,100,31.00
2025-12-11 22:43:54.156,WT901BLE67,90856446-A74E-F462-0152-8475C1E77738,0.533,-1.396,-0.561,83.008,66.711,-71.472,-125.782,49.274,-89.692,12.12,12.94,20.76,100,31.00
2025-12-11 22:43:54.160,WT901BLE67,90856446-A74E-F462-0152-8475C1E77738,0.533,-1.396,-0.561,83.008,66.711,-71.472,-125.782,49.274,-89.692,12.12,12.94,20.76,100,31.00
2025-12-11 22:43:54.164,WT901BLE67,90856446-A74E-F462-0152-8475C1E77738,0.533,-1.396,-0.561,83.008,66.711,-71.472,-125.782,49.274,-89.692,12.12,12.94,20.76,100,31.00
2025-12-11 22:43:54.171,WT901BLE67,90856446-A74E-F462-0152-8475C1E77738,0.533,-1.396,-0.561,83.008,66.711,-71.472,-125.782,49.274,-89.692,12.12,12.94,20.76,100,31.00
2025-12-11 22:43:54.175,WT901BLE67,90856446-A74E-F462-0152-8475C1E77738,0.533,-1.396,-0.561,83.008,66.711,-71.472,-125.782,49.274,-89.692,12.12,12.94,20.76,100,31.00
2025-12-11 22:43:54.179,WT901BLE67,90856446-A74E-F462-0152-8475C1E77738,0.726,-1.363,-0.580,81.482,84.961,-73.059,-126.480,50.251,-89.500,12.12,12.94,20.76,100,31.00
2025-12-11 22:43:54.179,WT901BLE67,90856446-A74E-F462-0152-8475C1E77738,0.698,-1.305,-0.587,100.220,59.021,-68.054,-122.399,45.873,-90.412,12.12,12.94,20.76,100,31.00
2025-12-11 22:43:54.179,WT901BLE67,90856446-A74E-F462-0152-8475C1E77738,0.698,-1.305,-0.587,100.220,59.021,-68.054,-122.399,45.873,-90.412,12.12,12.94,20.76,100,31.00
2025-12-11 22:43:54.184,WT901BLE67,90856446-A74E-F462-0152-8475C1E77738,0.698,-1.305,-0.587,100.220,59.021,-68.054,-122.399,45.873,-90.412,12.12,12.94,20.76,100,31.00
2025-12-11 22:43:54.190,WT901BLE67,90856446-A74E-F462-0152-8475C1E77738,0.698,-1.305,-0.587,100.220,59.021,-68.054,-122.399,45.873,-90.412,12.12,12.94,20.76,100,31.00
2025-12-11 22:43:54.194,WT901BLE67,90856446-A74E-F462-0152-8475C1E77738,0.698,-1.305,-0.587,100.220,59.021,-68.054,-122.399,45.873,-90.412,12.12,12.94,20.76,100,31.00
2025-12-11 22:43:54.199,WT901BLE67,90856446-A74E-F462-0152-8475C1E77738,0.698,-1.305,-0.587,100.220,59.021,-68.054,-122.399,45.873,-90.412,12.12,12.94,20.76,100,31.00
2025-12-11 22:43:54.205,WT901BLE67,90856446-A74E-F462-0152-8475C1E77738,0.698,-1.305,-0.587,100.220,59.021,-68.054,-122.399,45.873,-90.412,12.12,12.94,20.76,100,31.00
2025-12-11 22:43:54.209,WT901BLE67,90856446-A74E-F462-0152-8475C1E77738,0.698,-1.305,-0.587,100.220,59.021,-68.054,-122.399,45.873,-90.412,12.12,12.94,20.76,100,31.00
2025-12-11 22:43:54.210,WT901BLE67,90856446-A74E-F462-0152-8475C1E77738,0.865,-1.379,-0.487,101.440,67.505,-58.411,-123.234,46.774,-90.181,12.12,12.94,20.76,100,31.00
2025-12-11 22:43:54.210,WT901BLE67,90856446-A74E-F462-0152-8475C1E77738,0.775,-1.312,-0.541,119.507,98.206,-84.961,-119.454,41.622,-92.307,12.12,12.94,20.76,100,31.00
2025-12-11 22:43:54.214,WT901BLE67,90856446-A74E-F462-0152-8475C1E77738,0.775,-1.312,-0.541,119.507,98.206,-84.961,-119.454,41.622,-92.307,12.12,12.94,20.76,100,31.00
2025-12-11 22:43:54.222,WT901BLE67,90856446-A74E-F462-0152-8475C1E77738,0.775,-1.312,-0.541,119.507,98.206,-84.961,-119.454,41.622,-92.307,12.12,12.94,20.76,100,31.00
2025-12-11 22:43:54.226,WT901BLE67,90856446-A74E-F462-0152-8475C1E77738,0.775,-1.312,-0.541,119.507,98.206,-84.961,-119.454,41.622,-92.307,12.12,12.94,20.76,100,31.00
2025-12-11 22:43:54.230,WT901BLE67,90856446-A74E-F462-0152-8475C1E77738,0.775,-1.312,-0.541,119.507,98.206,-84.961,-119.454,41.622,-92.307,12.12,12.94,20.76,100,31.00
2025-12-11 22:43:54.234,WT901BLE67,90856446-A74E-F462-0152-8475C1E77738,0.775,-1.312,-0.541,119.507,98.206,-84.961,-119.454,41.622,-92.307,12.12,12.94,20.76,100,31.00
2025-12-11 22:43:54.240,WT901BLE67,90856446-A74E-F462-0152-8475C1E77738,0.775,-1.312,-0.541,119.507,98.206,-84.961,-119.454,41.622,-92.307,12.12,12.94,20.76,100,31.00
2025-12-11 22:43:54.244,WT901BLE67,90856446-A74E-F462-0152-8475C1E77738,0.775,-1.312,-0.541,119.507,98.206,-84.961,-119.454,41.622,-92.307,12.12,12.94,20.76,100,31.00
2025-12-11 22:43:54.249,WT901BLE67,90856446-A74E-F462-0152-8475C1E77738,0.775,-1.312,-0.541,119.507,98.206,-84.961,-119.454,41.622,-92.307,12.12,12.94,20.76,100,31.00
2025-12-11 22:43:54.255,WT901BLE67,90856446-A74E-F462-0152-8475C1E77738,0.775,-1.312,-0.541,119.507,98.206,-84.961,-119.454,41.622,-92.307,12.12,12.94,20.76,100,31.00
2025-12-11 22:43:54.259,WT901BLE67,90856446-A74E-F462-0152-8475C1E77738,0.775,-1.312,-0.541,119.507,98.206,-84.961,-119.454,41.622,-92.307,12.12,12.94,20.76,100,31.00
2025-12-11 22:43:54.264,WT901BLE67,90856446-A74E-F462-0152-8475C1E77738,0.775,-1.312,-0.541,119.507,98.206,-84.961,-119.454,41.622,-92.307,12.12,12.94,20.76,100,31.00
2025-12-11 22:43:54.268,WT901BLE67,90856446-A74E-F462-0152-8475C1E77738,0.876,-1.423,-0.571,112.000,86.487,-69.397,-120.234,42.819,-91.714,12.12,12.94,20.76,100,31.00
2025-12-11 22:43:54.269,WT901BLE67,90856446-A74E-F462-0152-8475C1E77738,0.898,-1.558,-0.615,99.060,140.747,-86.792,-117.466,35.804,-96.317,12.12,12.94,20.76,100,31.00
2025-12-11 22:43:54.271,WT901BLE67,90856446-A74E-F462-0152-8475C1E77738,0.898,-1.558,-0.615,99.060,140.747,-86.792,-117.466,35.804,-96.317,12.12,12.94,20.76,100,31.00
2025-12-11 22:43:54.276,WT901BLE67,90856446-A74E-F462-0152-8475C1E77738,0.898,-1.558,-0.615,99.060,140.747,-86.792,-117.466,35.804,-96.317,12.12,12.94,20.76,100,31.00
2025-12-11 22:43:54.280,WT901BLE67,90856446-A74E-F462-0152-8475C1E77738,0.898,-1.558,-0.615,99.060,140.747,-86.792,-117.466,35.804,-96.317,12.12,12.94,20.76,100,31.00
2025-12-11 22:43:54.284,WT901BLE67,90856446-A74E-F462-0152-8475C1E77738,0.898,-1.558,-0.615,99.060,140.747,-86.792,-117.466,35.804,-96.317,12.12,12.94,20.76,100,31.00
2025-12-11 22:43:54.291,WT901BLE67,90856446-A74E-F462-0152-8475C1E77738,0.898,-1.558,-0.615,99.060,140.747,-86.792,-117.466,35.804,-96.317,12.12,12.94,20.76,100,31.00
2025-12-11 22:43:54.295,WT901BLE67,90856446-A74E-F462-0152-8475C1E77738,0.898,-1.558,-0.615,99.060,140.747,-86.792,-117.466,35.804,-96.317,12.12,12.94,20.76,100,31.00
