Timestamp,DeviceName,Mac,AX,AY,AZ,GX,GY,GZ,AngX,AngY,AngZ,HX,HY,HZ,Electric,Temp
2025-12-11 22:16:00.626,WT901BLE67,90856446-A74E-F462-0152-8475C1E77738,1.400,-1.032,0.796,0.000,0.000,0.000,-0.472,0.786,-72.708,30.52,-11.48,-71.28,100,27.57
2025-12-11 22:16:00.627,WT901BLE67,90856446-A74E-F462-0152-8475C1E77738,1.399,-1.033,0.796,0.000,0.000,0.000,-0.472,0.786,-72.708,30.52,-11.48,-71.28,100,27.57
2025-12-11 22:16:00.627,WT901BLE67,90856446-A74E-F462-0152-8475C1E77738,1.399,-1.033,0.796,0.000,0.000,0.000,-0.472,0.786,-72.708,30.52,-11.48,-71.28,100,27.57
2025-12-11 22:16:00.631,WT901BLE67,90856446-A74E-F462-0152-8475C1E77738,1.399,-1.033,0.796,0.000,0.000,0.000,-0.472,0.786,-72.708,30.52,-11.48,-71.28,100,27.57
2025-12-11 22:16:00.635,WT901BLE67,90856446-A74E-F462-0152-8475C1E77738,1.399,-1.033,0.796,0.000,0.000,0.000,-0.472,0.786,-72.708,30.52,-11.48,-71.28,100,27.57
2025-12-11 22:16:00.640,WT901BLE67,90856446-A74E-F462-0152-8475C1E77738,1.399,-1.033,0.796,0.000,0.000,0.000,-0.472,0.786,-72.708,30.52,-11.48,-71.28,100,27.57
2025-12-11 22:16:00.646,WT901BLE67,90856446-A74E-F462-0152-8475C1E77738,1.399,-1.033,0.796,0.000,0.000,0.000,-0.472,0.786,-72.708,30.52,-11.48,-71.28,100,27.57
2025-12-11 22:16:00.650,WT901BLE67,90856446-A74E-F462-0152-8475C1E77738,1.399,-1.033,0.796,0.000,0.000,0.000,-0.472,0.786,-72.708,30.52,-11.48,-71.28,100,27.57
2025-12-11 22:16:00.655,WT901BLE67,90856446-A74E-F462-0152-8475C1E77738,1.399,-1.033,0.796,0.000,0.000,0.000,-0.472,0.786,-72.708,30.52,-11.48,-71.28,100,27.57
2025-12-11 22:16:00.660,WT901BLE67,90856446-A74E-F462-0152-8475C1E77738,1.399,-1.033,0.796,0.000,0.000,0.000,-0.472,0.786,-72.708,30.52,-11.48,-71.28,100,27.57
2025-12-11 22:16:00.665,WT901BLE67,90856446-A74E-F462-0152-8475C1E77738,1.399,-1.033,0.796,0.000,0.000,0.000,-0.472,0.786,-72.708,30.52,-11.48,-71.28,100,27.57
2025-12-11 22:16:00.670,WT901BLE67,90856446-A74E-F462-0152-8475C1E77738,1.399,-1.033,0.796,0.000,0.000,0.000,-0.472,0.786,-72.708,30.52,-11.48,-71.28,100,27.57
2025-12-11 22:16:00.675,WT901BLE67,90856446-A74E-F462-0152-8475C1E77738,1.399,-1.033,0.796,0.000,0.000,0.000,-0.472,0.786,-72.708,30.52,-11.48,-71.28,100,27.57
2025-12-11 22:16:00.678,WT901BLE67,90856446-A74E-F462-0152-8475C1E77738,1.401,-1.033,0.796,0.000,0.000,0.000,-0.472,0.786,-72.708,30.52,-11.48,-71.28,100,27.57
2025-12-11 22:16:00.678,WT901BLE67,90856446-A74E-F462-0152-8475C1E77738,1.399,-1.034,0.795,0.000,0.000,0.000,-0.472,0.786,-72.708,30.52,-11.48,-71.28,100,27.57
2025-12-11 22:16:00.680,WT901BLE67,90856446-A74E-F462-0152-8475C1E77738,1.399,-1.034,0.795,0.000,0.000,0.000,-0.472,0.786,-72.708,30.52,-11.48,-71.28,100,27.57
2025-12-11 22:16:00.685,WT901BLE67,90856446-A74E-F462-0152-8475C1E77738,1.399,-1.034,0.795,0.000,0.000,0.000,-0.472,0.786,-72.708,30.52,-11.48,-71.28,100,27.57
2025-12-11 22:16:00.690,WT901BLE67,90856446-A74E-F462-0152-8475C1E77738,1.399,-1.034,0.795,0.000,0.000,0.000,-0.472,0.786,-72.708,30.52,-11.48,-71.28,100,27.57
2025-12-11 22:16:00.696,WT901BLE67,90856446-A74E-F462-0152-8475C1E77738,1.399,-1.034,0.795,0.000,0.000,0.000,-0.472,0.786,-72.708,30.52,-11.48,-71.28,100,27.57
2025-12-11 22:16:00.700,WT901BLE67,90856446-A74E-F462-0152-8475C1E77738,1.399,-1.034,0.795,0.000,0.000,0.000,-0.472,0.786,-72.708,30.52,-11.48,-71.28,100,27.57
2025-12-11 22:16:00.705,WT901BLE67,90856446-A74E-F462-0152-8475C1E77738,1.399,-1.034,0.795,0.000,0.000,0.000,-0.472,0.786,-72.708,30.52,-11.48,-71.28,100,27.57
2025-12-11 22:16:00.708,WT901BLE67,90856446-A74E-F462-0152-8475C1E77738,1.399,-1.034,0.794,0.000,0.000,0.000,-0.472,0.786,-72.708,30.52,-11.48,-71.28,100,27.57
2025-12-11 22:16:00.708,WT901BLE67,90856446-A74E-F462-0152-8475C1E77738,1.399,-1.036,0.795,0.000,0.000,0.000,-0.472,0.786,-72.708,30.52,-11.48,-71.28,100,27.57
2025-12-11 22:16:00.710,WT901BLE67,90856446-A74E-F462-0152-8475C1E77738,1.399,-1.036,0.795,0.000,0.000,0.000,-0.472,0.786,-72.708,30.52,-11.48,-71.28,100,27.57
2025-12-11 22:16:00.715,WT901BLE67,90856446-A74E-F462-0152-8475C1E77738,1.399,-1.036,0.795,0.000,0.000,0.000,-0.472,0.786,-72.708,30.52,-11.48,-71.28,100,27.57
2025-12-11 22:16:00.720,WT901BLE67,90856446-A74E-F462-0152-8475C1E77738,1.399,-1.036,0.795,0.000,0.000,0.000,-0.472,0.786,-72.708,30.52,-11.48,-71.28,100,27.57
2025-12-11 22:16:00.725,WT901BLE67,90856446-A74E-F462-0152-8475C1E77738,1.399,-1.036,0.795,0.000,0.000,0.000,-0.472,0.786,-72.708,30.52,-11.48,-71.28,100,27.57
2025-12-11 22:16:00.730,WT901BLE67,90856446-A74E-F462-0152-8475C1E77738,1.399,-1.036,0.795,0.000,0.000,0.000,-0.472,0.786,-72.708,30.52,-11.48,-71.28,100,27.57
2025-12-11 22:16:00.735,WT901BLE67,90856446-A74E-F462-0152-8475C1E77738,1.399,-1.036,0.795,0.000,0.000,0.000,-0.472,0.786,-72.708,30.52,-11.48,-71.28,100,27.57
2025-12-11 22:16:00.738,WT901BLE67,90856446-A74E-F462-0152-8475C1E77738,1.400,-1.033,0.794,0.000,0.000,0.000,-0.472,0.786,-72.708,30.52,-11.48,-71.28,100,27.57
2025-12-11 22:16:00.738,WT901BLE67,90856446-A74E-F462-0152-8475C1E77738,1.400,-1.034,0.795,0.000,0.000,0.000,-0.472,0.786,-72.708,30.52,-11.48,-71.28,100,27.57
2025-12-11 22:16:00.740,WT901BLE67,90856446-A74E-F462-0152-8475C1E77738,1.400,-1.034,0.795,0.000,0.000,0.000,-0.472,0.786,-72.708,30.52,-11.48,-71.28,100,27.57
2025-12-11 22:16:00.746,WT901BLE67,90856446-A74E-F462-0152-8475C1E77738,1.400,-1.034,0.795,0.000,0.000,0.000,-0.472,0.786,-72.708,30.52,-11.48,-71.28,100,27.57
2025-12-11 22:16:00.750,WT901BLE67,90856446-A74E-F462-0152-8475C1E77738,1.400,-1.034,0.795,0.000,0.000,0.000,-0.472,0.786,-72.708,30.52,-11.48,-71.28,100,27.57
2025-12-11 22:16:00.755,WT901BLE67,90856446-A74E-F462-0152-8475C1E77738,1.400,-1.034,0.795,0.000,0.000,0.000,-0.472,0.786,-72.708,30.52,-11.48,-71.28,100,27.57
2025-12-11 22:16:00.760,WT901BLE67,90856446-A74E-F462-0152-8475C1E77738,1.400,-1.034,0.795,0.000,0.000,0.000,-0.472,0.786,-72.708,30.52,-11.48,-71.28,100,27.57
2025-12-11 22:16:00.765,WT901BLE67,90856446-A74E-F462-0152-8475C1E77738,1.400,-1.034,0.795,0.000,0.000,0.000,-0.472,0.786,-72.708,30.52,-11.48,-71.28,100,27.57
2025-12-11 22:16:00.770,WT901BLE67,90856446-A74E-F462-0152-8475C1E77738,1.400,-1.034,0.795,0.000,0.000,0.000,-0.472,0.786,-72.708,30.52,-11.48,-71.28,100,27.57
2025-12-11 22:16:00.775,WT901BLE67,90856446-A74E-F462-0152-8475C1E77738,1.400,-1.034,0.795,0.000,0.000,0.000,-0.472,0.786,-72.708,30.52,-11.48,-71.28,100,27.57
2025-12-11 22:16:00.780,WT901BLE67,90856446-A74E-F462-0152-8475C1E77738,1.400,-1.034,0.795,0.000,0.000,0.000,-0.472,0.786,-72.708,30.52,-11.48,-71.28,100,27.57
2025-12-11 22:16:00.785,WT901BLE67,90856446-A74E-F462-0152-8475C1E77738,1.400,-1.034,0.795,0.000,0.000,0.000,-0.472,0.786,-72.708,30.52,-11.48,-71.28,100,27.57
2025-12-11 22:16:00.790,WT901BLE67,90856446-A74E-F462-0152-8475C1E77738,1.400,-1.034,0.795,0.000,0.000,0.000,-0.472,0.786,-72.708,30.52,-11.48,-71.28,100,27.57
2025-12-11 22:16:00.796,WT901BLE67,90856446-A74E-F462-0152-8475C1E77738,1.400,-1.034,0.795,0.000,0.000,0.000,-0.472,0.786,-72.708,30.52,-11.48,-71.28,100,27.57
2025-12-11 22:16:00.799,WT901BLE67,90856446-A74E-F462-0152-8475C1E77738,1.401,-1.032,0.795,0.000,0.000,0.000,-0.472,0.786,-72.708,30.52,-11.48,-71.28,100,27.57
2025-12-11 22:16:00.799,WT901BLE67,90856446-A74E-F462-0152-8475C1E77738,1.400,-1.033,0.795,0.000,0.000,0.000,-0.472,0.786,-72.708,30.52,-11.48,-71.28,100,27.57
2025-12-11 22:16:00.800,WT901BLE67,90856446-A74E-F462-0152-8475C1E77738,1.400,-1.033,0.795,0.000,0.000,0.000,-0.472,0.786,-72.708,30.52,-11.48,-71.28,100,27.57
2025-12-11 22:16:00.805,WT901BLE67,90856446-A74E-F462-0152-8475C1E77738,1.400,-1.033,0.795,0.000,0.000,0.000,-0.472,0.786,-72.708,30.52,-11.48,-71.28,100,27.57
2025-12-11 22:16:00.810,WT901BLE67,90856446-A74E-F462-0152-8475C1E77738,1.400,-1.033,0.795,0.000,0.000,0.000,-0.472,0.786,-72.708,30.52,-11.48,-71.28,100,27.57
2025-12-11 22:16:00.815,WT901BLE67,90856446-A74E-F462-0152-8475C1E77738,1.400,-1.033,0.795,0.000,0.000,0.000,-0.472,0.786,-72.708,30.52,-11.48,-71.28,100,27.57
2025-12-11 22:16:00.820,WT901BLE67,90856446-A74E-F462-0152-8475C1E77738,1.400,-1.033,0.795,0.000,0.000,0.000,-0.472,0.786,-72.708,30.52,-11.48,-71.28,100,27.57
2025-12-11 22:16:00.825,WT901BLE67,90856446-A74E-F462-0152-8475C1E77738,1.400,-1.033,0.795,0.000,0.000,0.000,-0.472,0.786,-72.708,30.52,-11.48,-71.28,100,27.57
2025-12-11 22:16:00.830,WT901BLE67,90856446-A74E-F462-0152-8475C1E77738,1.401,-1.033,0.794,0.000,0.000,0.000,-0.472,0.786,-72.708,30.52,-11.48,-71.28,100,27.57
2025-12-11 22:16:00.830,WT901BLE67,90856446-A74E-F462-0152-8475C1E77738,1.400,-1.033,0.794,0.000,0.000,0.000,-0.472,0.786,-72.708,30.52,-11.48,-71.28,100,27.57
2025-12-11 22:16:00.830,WT901BLE67,90856446-A74E-F462-0152-8475C1E77738,1.400,-1.033,0.794,0.000,0.000,0.000,-0.472,0.786,-72.708,30.52,-11.48,-71.28,100,27.57
2025-12-11 22:16:00.835,WT901BLE67,90856446-A74E-F462-0152-8475C1E77738,1.400,-1.033,0.794,0.000,0.000,0.000,-0.472,0.786,-72.708,30.52,-11.48,-71.28,100,27.57
2025-12-11 22:16:00.840,WT901BLE67,90856446-A74E-F462-0152-8475C1E77738,1.400,-1.033,0.794,0.000,0.000,0.000,-0.472,0.786,-72.708,30.52,-11.48,-71.28,100,27.57
2025-12-11 22:16:00.847,WT901BLE67,90856446-A74E-F462-0152-8475C1E77738,1.400,-1.033,0.794,0.000,0.000,0.000,-0.472,0.786,-72.708,30.52,-11.48,-71.28,100,27.57
2025-12-11 22:16:00.850,WT901BLE67,90856446-A74E-F462-0152-8475C1E77738,1.400,-1.033,0.794,0.000,0.000,0.000,-0.472,0.786,-72.708,30.52,-11.48,-71.28,100,27.57
2025-12-11 22:16:00.855,WT901BLE67,90856446-A74E-F462-0152-8475C1E77738,1.400,-1.033,0.794,0.000,0.000,0.000,-0.472,0.786,-72.708,30.52,-11.48,-71.28,100,27.57
2025-12-11 22:16:00.858,WT901BLE67,90856446-A74E-F462-0152-8475C1E77738,1.401,-1.032,0.797,0.000,0.000,0.000,-0.472,0.786,-72.708,30.52,-11.48,-71.28,100,27.57
2025-12-11 22:16:00.858,WT901BLE67,90856446-A74E-F462-0152-8475C1E77738,1.400,-1.034,0.792,0.000,0.000,0.000,-0.472,0.786,-72.708,30.52,-11.48,-71.28,100,27.57
2025-12-11 22:16:00.860,WT901BLE67,90856446-A74E-F462-0152-8475C1E77738,1.400,-1.034,0.792,0.000,0.000,0.000,-0.472,0.786,-72.708,30.52,-11.48,-71.28,100,27.57
2025-12-11 22:16:00.865,WT901BLE67,90856446-A74E-F462-0152-8475C1E77738,1.400,-1.034,0.792,0.000,0.000,0.000,-0.472,0.786,-72.708,30.52,-11.48,-71.28,100,27.57
2025-12-11 22:16:00.870,WT901BLE67,90856446-A74E-F462-0152-8475C1E77738,1.400,-1.034,0.792,0.000,0.000,0.000,-0.472,0.786,-72.708,30.52,-11.48,-71.28,100,27.57
2025-12-11 22:16:00.875,WT901BLE67,90856446-A74E-F462-0152-8475C1E77738,1.400,-1.034,0.792,0.000,0.000,0.000,-0.472,0.786,-72.708,30.52,-11.48,-71.28,100,27.57
2025-12-11 22:16:00.880,WT901BLE67,90856446-A74E-F462-0152-8475C1E77738,1.400,-1.034,0.792,0.000,0.000,0.000,-0.472,0.786,-72.708,30.52,-11.48,-71.28,100,27.57
2025-12-11 22:16:00.885,WT901BLE67,90856446-A74E-F462-0152-8475C1E77738,1.400,-1.034,0.792,0.000,0.000,0.000,-0.472,0.786,-72.708,30.52,-11.48,-71.28,100,27.57
2025-12-11 22:16:00.890,WT901BLE67,90856446-A74E-F462-0152-8475C1E77738,1.400,-1.034,0.792,0.000,0.000,0.000,-0.472,0.786,-72.708,30.52,-11.48,-71.28,100,27.57
2025-12-11 22:16:00.896,WT901BLE67,90856446-A74E-F462-0152-8475C1E77738,1.400,-1.034,0.792,0.000,0.000,0.000,-0.472,0.786,-72.708,30.52,-11.48,-71.28,100,27.57
2025-12-11 22:16:00.900,WT901BLE67,90856446-A74E-F462-0152-8475C1E77738,1.400,-1.034,0.792,0.000,0.000,0.000,-0.472,0.786,-72.708,30.52,-11.48,-71.28,100,27.57
2025-12-11 22:16:00.905,WT901BLE67,90856446-A74E-F462-0152-8475C1E77738,1.400,-1.034,0.792,0.000,0.000,0.000,-0.472,0.786,-72.708,30.52,-11.48,-71.28,100,27.57
2025-12-11 22:16:00.910,WT901BLE67,90856446-A74E-F462-0152-8475C1E77738,1.400,-1.034,0.792,0.000,0.000,0.000,-0.472,0.786,-72.708,30.52,-11.48,-71.28,100,27.57
2025-12-11 22:16:00.915,WT901BLE67,90856446-A74E-F462-0152-8475C1E77738,1.400,-1.034,0.792,0.000,0.000,0.000,-0.472,0.786,-72.708,30.52,-11.48,-71.28,100,27.57
2025-12-11 22:16:00.918,WT901BLE67,90856446-A74E-F462-0152-8475C1E77738,1.400,-1.033,0.796,0.000,0.000,0.000,-0.472,0.786,-72.708,30.52,-11.48,-71.28,100,27.57
2025-12-11 22:16:00.918,WT901BLE67,90856446-A74E-F462-0152-8475C1E77738,1.400,-1.033,0.796,0.000,0.000,0.000,-0.472,0.786,-72.708,30.52,-11.48,-71.28,100,27.57
2025-12-11 22:16:00.920,WT901BLE67,90856446-A74E-F462-0152-8475C1E77738,1.400,-1.033,0.796,0.000,0.000,0.000,-0.472,0.786,-72.708,30.52,-11.48,-71.28,100,27.57
2025-12-11 22:16:00.925,WT901BLE67,90856446-A74E-F462-0152-8475C1E77738,1.400,-1.033,0.796,0.000,0.000,0.000,-0.472,0.786,-72.708,30.52,-11.48,-71.28,100,27.57
2025-12-11 22:16:00.930,WT901BLE67,90856446-A74E-F462-0152-8475C1E77738,1.400,-1.033,0.796,0.000,0.000,0.000,-0.472,0.786,-72.708,30.52,-11.48,-71.28,100,27.57
2025-12-11 22:16:00.935,WT901BLE67,90856446-A74E-F462-0152-8475C1E77738,1.400,-1.033,0.796,0.000,0.000,0.000,-0.472,0.786,-72.708,30.52,-11.48,-71.28,100,27.57
2025-12-11 22:16:00.940,WT901BLE67,90856446-A74E-F462-0152-8475C1E77738,1.400,-1.033,0.796,0.000,0.000,0.000,-0.472,0.786,-72.708,30.52,-11.48,-71.28,100,27.57
2025-12-11 22:16:00.946,WT901BLE67,90856446-A74E-F462-0152-8475C1E77738,1.400,-1.033,0.796,0.000,0.000,0.000,-0.472,0.786,-72.708,30.52,-11.48,-71.28,100,27.57
2025-12-11 22:16:00.949,WT901BLE67,90856446-A74E-F462-0152-8475C1E77738,1.401,-1.031,0.795,0.000,0.000,0.000,-0.472,0.786,-72.708,30.52,-11.48,-71.28,100,27.57
2025-12-11 22:16:00.949,WT901BLE67,90856446-A74E-F462-0152-8475C1E77738,1.399,-1.034,0.795,0.000,0.000,0.000,-0.472,0.786,-72.708,30.52,-11.48,-71.28,100,27.57
2025-12-11 22:16:00.950,WT901BLE67,90856446-A74E-F462-0152-8475C1E77738,1.399,-1.034,0.795,0.000,0.000,0.000,-0.472,0.786,-72.708,30.52,-11.48,-71.28,100,27.57
2025-12-11 22:16:00.955,WT901BLE67,90856446-A74E-F462-0152-8475C1E77738,1.399,-1.034,0.795,0.000,0.000,0.000,-0.472,0.786,-72.708,30.52,-11.48,-71.28,100,27.57
2025-12-11 22:16:00.960,WT901BLE67,90856446-A74E-F462-0152-8475C1E77738,1.399,-1.034,0.795,0.000,0.000,0.000,-0.472,0.786,-72.708,30.52,-11.48,-71.28,100,27.57
2025-12-11 22:16:00.965,WT901BLE67,90856446-A74E-F462-0152-8475C1E77738,1.399,-1.034,0.795,0.000,0.000,0.000,-0.472,0.786,-72.708,30.52,-11.48,-71.28,100,27.57
2025-12-11 22:16:00.971,WT901BLE67,90856446-A74E-F462-0152-8475C1E77738,1.399,-1.034,0.795,0.000,0.000,0.000,-0.472,0.786,-72.708,30.52,-11.48,-71.28,100,27.57
2025-12-11 22:16:00.975,WT901BLE67,90856446-A74E-F462-0152-8475C1E77738,1.399,-1.034,0.795,0.000,0.000,0.000,-0.472,0.786,-72.708,30.52,-11.48,-71.28,100,27.57
2025-12-11 22:16:00.977,WT901BLE67,90856446-A74E-F462-0152-8475C1E77738,1.402,-1.034,0.793,0.000,0.000,0.000,-0.472,0.786,-72.708,30.52,-11.48,-71.28,100,27.57
2025-12-11 22:16:00.978,WT901BLE67,90856446-A74E-F462-0152-8475C1E77738,1.402,-1.035,0.796,0.000,0.000,0.000,-0.472,0.786,-72.708,30.52,-11.48,-71.28,100,27.57
2025-12-11 22:16:00.980,WT901BLE67,90856446-A74E-F462-0152-8475C1E77738,1.402,-1.035,0.796,0.000,0.000,0.000,-0.472,0.786,-72.708,30.52,-11.48,-71.28,100,27.57
2025-12-11 22:16:00.985,WT901BLE67,90856446-A74E-F462-0152-8475C1E77738,1.402,-1.035,0.796,0.000,0.000,0.000,-0.472,0.786,-72.708,30.52,-11.48,-71.28,100,27.57
2025-12-11 22:16:00.990,WT901BLE67,90856446-A74E-F462-0152-8475C1E77738,1.402,-1.035,0.796,0.000,0.000,0.000,-0.472,0.786,-72.708,30.52,-11.48,-71.28,100,27.57
2025-12-11 22:16:00.997,WT901BLE67,90856446-A74E-F462-0152-8475C1E77738,1.402,-1.035,0.796,0.000,0.000,0.000,-0.472,0.786,-72.708,30.52,-11.48,-71.28,100,27.57
2025-12-11 22:16:01.000,WT901BLE67,90856446-A74E-F462-0152-8475C1E77738,1.402,-1.035,0.796,0.000,0.000,0.000,-0.472,0.786,-72.708,30.52,-11.48,-71.28,100,27.57
2025-12-11 22:16:01.005,WT901BLE67,90856446-A74E-F462-0152-8475C1E77738,1.402,-1.035,0.796,0.000,0.000,0.000,-0.472,0.786,-72.708,30.52,-11.48,-71.28,100,27.57
2025-12-11 22:16:01.010,WT901BLE67,90856446-A74E-F462-0152-8475C1E77738,1.402,-1.035,0.796,0.000,0.000,0.000,-0.472,0.786,-72.708,30.52,-11.48,-71.28,100,27.57
2025-12-11 22:16:01.015,WT901BLE67,90856446-A74E-F462-0152-8475C1E77738,1.402,-1.035,0.796,0.000,0.000,0.000,-0.472,0.786,-72.708,30.52,-11.48,-71.28,100,27.57
2025-12-11 22:16:01.020,WT901BLE67,90856446-A74E-F462-0152-8475C1E77738,1.402,-1.035,0.796,0.000,0.000,0.000,-0.472,0.786,-72.708,30.52,-11.48,-71.28,100,27.57
2025-12-11 22:16:01.025,WT901BLE67,90856446-A74E-F462-0152-8475C1E77738,1.402,-1.035,0.796,0.000,0.000,0.000,-0.472,0.786,-72.708,30.52,-11.48,-71.28,100,27.57
2025-12-11 22:16:01.030,WT901BLE67,90856446-A74E-F462-0152-8475C1E77738,1.402,-1.035,0.796,0.000,0.000,0.000,-0.472,0.786,-72.708,30.52,-11.48,-71.28,100,27.57
2025-12-11 22:16:01.035,WT901BLE67,90856446-A74E-F462-0152-8475C1E77738,1.402,-1.035,0.796,0.000,0.000,0.000,-0.472,0.786,-72.708,30.52,-11.48,-71.28,100,27.57
2025-12-11 22:16:01.039,WT901BLE67,90856446-A74E-F462-0152-8475C1E77738,1.400,-1.034,0.796,0.000,0.000,0.000,-0.472,0.786,-72.708,30.52,-11.48,-71.28,100,27.57
2025-12-11 22:16:01.039,WT901BLE67,90856446-A74E-F462-0152-8475C1E77738,1.402,-1.035,0.797,0.000,0.000,0.000,-0.472,0.786,-72.708,30.52,-11.48,-71.28,100,27.57
2025-12-11 22:16:01.040,WT901BLE67,90856446-A74E-F462-0152-8475C1E77738,1.402,-1.035,0.797,0.000,0.000,0.000,-0.472,0.786,-72.708,30.52,-11.48,-71.28,100,27.57
2025-12-11 22:16:01.046,WT901BLE67,90856446-A74E-F462-0152-8475C1E77738,1.402,-1.035,0.797,0.000,0.000,0.000,-0.472,0.786,-72.708,30.52,-11.48,-71.28,100,27.57
2025-12-11 22:16:01.050,WT901BLE67,90856446-A74E-F462-0152-8475C1E77738,1.402,-1.035,0.797,0.000,0.000,0.000,-0.472,0.786,-72.708,30.52,-11.48,-71.28,100,27.57
2025-12-11 22:16:01.055,WT901BLE67,90856446-A74E-F462-0152-8475C1E77738,1.402,-1.035,0.797,0.000,0.000,0.000,-0.472,0.786,-72.708,30.52,-11.48,-71.28,100,27.57
2025-12-11 22:16:01.060,WT901BLE67,90856446-A74E-F462-0152-8475C1E77738,1.402,-1.035,0.797,0.000,0.000,0.000,-0.472,0.786,-72.708,30.52,-11.48,-71.28,100,27.57
2025-12-11 22:16:01.065,WT901BLE67,90856446-A74E-F462-0152-8475C1E77738,1.402,-1.035,0.797,0.000,0.000,0.000,-0.472,0.786,-72.708,30.52,-11.48,-71.28,100,27.57
2025-12-11 22:16:01.068,WT901BLE67,90856446-A74E-F462-0152-8475C1E77738,1.401,-1.032,0.795,0.000,0.000,0.000,-0.472,0.786,-72.708,30.52,-11.48,-71.28,100,27.57
2025-12-11 22:16:01.068,WT901BLE67,90856446-A74E-F462-0152-8475C1E77738,1.401,-1.032,0.799,0.000,0.000,0.000,-0.472,0.786,-72.708,30.52,-11.48,-71.28,100,27.57
2025-12-11 22:16:01.070,WT901BLE67,90856446-A74E-F462-0152-8475C1E77738,1.401,-1.032,0.799,0.000,0.000,0.000,-0.472,0.786,-72.708,30.52,-11.48,-71.28,100,27.57
2025-12-11 22:16:01.075,WT901BLE67,90856446-A74E-F462-0152-8475C1E77738,1.401,-1.032,0.799,0.000,0.000,0.000,-0.472,0.786,-72.708,30.52,-11.48,-71.28,100,27.57
2025-12-11 22:16:01.080,WT901BLE67,90856446-A74E-F462-0152-8475C1E77738,1.401,-1.032,0.799,0.000,0.000,0.000,-0.472,0.786,-72.708,30.52,-11.48,-71.28,100,27.57
2025-12-11 22:16:01.085,WT901BLE67,90856446-A74E-F462-0152-8475C1E77738,1.401,-1.032,0.799,0.000,0.000,0.000,-0.472,0.786,-72.708,30.52,-11.48,-71.28,100,27.57
2025-12-11 22:16:01.090,WT901BLE67,90856446-A74E-F462-0152-8475C1E77738,1.401,-1.032,0.799,0.000,0.000,0.000,-0.472,0.786,-72.708,30.52,-11.48,-71.28,100,27.57
2025-12-11 22:16:01.097,WT901BLE67,90856446-A74E-F462-0152-8475C1E77738,1.401,-1.032,0.799,0.000,0.000,0.000,-0.472,0.786,-72.708,30.52,-11.48,-71.28,100,27.57
2025-12-11 22:16:01.099,WT901BLE67,90856446-A74E-F462-0152-8475C1E77738,1.400,-1.030,0.795,0.000,0.000,0.000,-0.472,0.786,-72.708,30.52,-11.48,-71.28,100,27.57
2025-12-11 22:16:01.099,WT901BLE67,90856446-A74E-F462-0152-8475C1E77738,1.400,-1.033,0.794,0.000,0.000,0.000,-0.472,0.786,-72.708,30.52,-11.48,-71.28,100,27.57
2025-12-11 22:16:01.100,WT901BLE67,90856446-A74E-F462-0152-8475C1E77738,1.400,-1.033,0.794,0.000,0.000,0.000,-0.472,0.786,-72.708,30.52,-11.48,-71.28,100,27.57
2025-12-11 22:16:01.105,WT901BLE67,90856446-A74E-F462-0152-8475C1E77738,1.400,-1.033,0.794,0.000,0.000,0.000,-0.472,0.786,-72.708,30.52,-11.48,-71.28,100,27.57
2025-12-11 22:16:01.110,WT901BLE67,90856446-A74E-F462-0152-8475C1E77738,1.400,-1.033,0.794,0.000,0.000,0.000,-0.472,0.786,-72.708,30.52,-11.48,-71.28,100,27.57
2025-12-11 22:16:01.115,WT901BLE67,90856446-A74E-F462-0152-8475C1E77738,1.400,-1.033,0.794,0.000,0.000,0.000,-0.472,0.786,-72.708,30.52,-11.48,-71.28,100,27.57
2025-12-11 22:16:01.120,WT901BLE67,90856446-A74E-F462-0152-8475C1E77738,1.400,-1.033,0.794,0.000,0.000,0.000,-0.472,0.786,-72.708,30.52,-11.48,-71.28,100,27.57
2025-12-11 22:16:01.125,WT901BLE67,90856446-A74E-F462-0152-8475C1E77738,1.400,-1.033,0.794,0.000,0.000,0.000,-0.472,0.786,-72.708,30.52,-11.48,-71.28,100,27.57
2025-12-11 22:16:01.130,WT901BLE67,90856446-A74E-F462-0152-8475C1E77738,1.400,-1.033,0.794,0.000,0.000,0.000,-0.472,0.786,-72.708,30.52,-11.48,-71.28,100,27.57
2025-12-11 22:16:01.135,WT901BLE67,90856446-A74E-F462-0152-8475C1E77738,1.400,-1.033,0.794,0.000,0.000,0.000,-0.472,0.786,-72.708,30.52,-11.48,-71.28,100,27.57
2025-12-11 22:16:01.140,WT901BLE67,90856446-A74E-F462-0152-8475C1E77738,1.400,-1.033,0.794,0.000,0.000,0.000,-0.472,0.786,-72.708,30.52,-11.48,-71.28,100,27.57
2025-12-11 22:16:01.147,WT901BLE67,90856446-A74E-F462-0152-8475C1E77738,1.400,-1.033,0.794,0.000,0.000,0.000,-0.472,0.786,-72.708,30.52,-11.48,-71.28,100,27.57
2025-12-11 22:16:01.150,WT901BLE67,90856446-A74E-F462-0152-8475C1E77738,1.400,-1.033,0.794,0.000,0.000,0.000,-0.472,0.786,-72.708,30.52,-11.48,-71.28,100,27.57
2025-12-11 22:16:01.155,WT901BLE67,90856446-A74E-F462-0152-8475C1E77738,1.400,-1.033,0.794,0.000,0.000,0.000,-0.472,0.786,-72.708,30.52,-11.48,-71.28,100,27.57
2025-12-11 22:16:01.158,WT901BLE67,90856446-A74E-F462-0152-8475C1E77738,1.402,-1.034,0.795,0.000,0.000,0.000,-0.472,0.786,-72.708,30.52,-11.48,-71.28,100,27.57
2025-12-11 22:16:01.158,WT901BLE67,90856446-A74E-F462-0152-8475C1E77738,1.402,-1.034,0.796,0.000,0.000,0.000,-0.472,0.786,-72.708,30.52,-11.48,-71.28,100,27.57
2025-12-11 22:16:01.160,WT901BLE67,90856446-A74E-F462-0152-8475C1E77738,1.402,-1.034,0.796,0.000,0.000,0.000,-0.472,0.786,-72.708,30.52,-11.48,-71.28,100,27.57
2025-12-11 22:16:01.165,WT901BLE67,90856446-A74E-F462-0152-8475C1E77738,1.402,-1.034,0.796,0.000,0.000,0.000,-0.472,0.786,-72.708,30.52,-11.48,-71.28,100,27.57
2025-12-11 22:16:01.170,WT901BLE67,90856446-A74E-F462-0152-8475C1E77738,1.402,-1.034,0.796,0.000,0.000,0.000,-0.472,0.786,-72.708,30.52,-11.48,-71.28,100,27.57
2025-12-11 22:16:01.175,WT901BLE67,90856446-A74E-F462-0152-8475C1E77738,1.402,-1.034,0.796,0.000,0.000,0.000,-0.472,0.786,-72.708,30.52,-11.48,-71.28,100,27.57
2025-12-11 22:16:01.180,WT901BLE67,90856446-A74E-F462-0152-8475C1E77738,1.402,-1.034,0.796,0.000,0.000,0.000,-0.472,0.786,-72.708,30.52,-11.48,-71.28,100,27.57
2025-12-11 22:16:01.185,WT901BLE67,90856446-A74E-F462-0152-8475C1E77738,1.402,-1.034,0.796,0.000,0.000,0.000,-0.472,0.786,-72.708,30.52,-11.48,-71.28,100,27.57
2025-12-11 22:16:01.188,WT901BLE67,90856446-A74E-F462-0152-8475C1E77738,1.401,-1.033,0.794,0.000,0.000,0.000,-0.472,0.786,-72.708,30.52,-11.48,-71.28,100,27.57
2025-12-11 22:16:01.188,WT901BLE67,90856446-A74E-F462-0152-8475C1E77738,1.399,-1.035,0.796,0.000,0.000,0.000,-0.472,0.786,-72.708,30.52,-11.48,-71.28,100,27.57
2025-12-11 22:16:01.190,WT901BLE67,90856446-A74E-F462-0152-8475C1E77738,1.399,-1.035,0.796,0.000,0.000,0.000,-0.472,0.786,-72.708,30.52,-11.48,-71.28,100,27.57
2025-12-11 22:16:01.197,WT901BLE67,90856446-A74E-F462-0152-8475C1E77738,1.399,-1.035,0.796,0.000,0.000,0.000,-0.472,0.786,-72.708,30.52,-11.48,-71.28,100,27.57
2025-12-11 22:16:01.200,WT901BLE67,90856446-A74E-F462-0152-8475C1E77738,1.399,-1.035,0.796,0.000,0.000,0.000,-0.472,0.786,-72.708,30.52,-11.48,-71.28,100,27.57
2025-12-11 22:16:01.205,WT901BLE67,90856446-A74E-F462-0152-8475C1E77738,1.399,-1.035,0.796,0.000,0.000,0.000,-0.472,0.786,-72.708,30.52,-11.48,-71.28,100,27.57
2025-12-11 22:16:01.210,WT901BLE67,90856446-A74E-F462-0152-8475C1E77738,1.399,-1.035,0.796,0.000,0.000,0.000,-0.472,0.786,-72.708,30.52,-11.48,-71.28,100,27.57
2025-12-11 22:16:01.215,WT901BLE67,90856446-A74E-F462-0152-8475C1E77738,1.399,-1.035,0.796,0.000,0.000,0.000,-0.472,0.786,-72.708,30.52,-11.48,-71.28,100,27.57
2025-12-11 22:16:01.218,WT901BLE67,90856446-A74E-F462-0152-8475C1E77738,1.402,-1.034,0.796,0.000,0.000,0.000,-0.472,0.786,-72.708,30.52,-11.48,-71.28,100,27.57
2025-12-11 22:16:01.218,WT901BLE67,90856446-A74E-F462-0152-8475C1E77738,1.401,-1.033,0.795,0.000,0.000,0.000,-0.472,0.786,-72.708,30.52,-11.48,-71.28,100,27.57
2025-12-11 22:16:01.220,WT901BLE67,90856446-A74E-F462-0152-8475C1E77738,1.401,-1.033,0.795,0.000,0.000,0.000,-0.472,0.786,-72.708,30.52,-11.48,-71.28,100,27.57
2025-12-11 22:16:01.225,WT901BLE67,90856446-A74E-F462-0152-8475C1E77738,1.401,-1.033,0.795,0.000,0.000,0.000,-0.472,0.786,-72.708,30.52,-11.48,-71.28,100,27.57
2025-12-11 22:16:01.230,WT901BLE67,90856446-A74E-F462-0152-8475C1E77738,1.401,-1.033,0.795,0.000,0.000,0.000,-0.472,0.786,-72.708,30.52,-11.48,-71.28,100,27.57
2025-12-11 22:16:01.235,WT901BLE67,90856446-A74E-F462-0152-8475C1E77738,1.401,-1.033,0.795,0.000,0.000,0.000,-0.472,0.786,-72.708,30.52,-11.48,-71.28,100,27.57
2025-12-11 22:16:01.240,WT901BLE67,90856446-A74E-F462-0152-8475C1E77738,1.401,-1.033,0.795,0.000,0.000,0.000,-0.472,0.786,-72.708,30.52,-11.48,-71.28,100,27.57
2025-12-11 22:16:01.247,WT901BLE67,90856446-A74E-F462-0152-8475C1E77738,1.401,-1.033,0.795,0.000,0.000,0.000,-0.472,0.786,-72.708,30.52,-11.48,-71.28,100,27.57
2025-12-11 22:16:01.250,WT901BLE67,90856446-A74E-F462-0152-8475C1E77738,1.401,-1.033,0.795,0.000,0.000,0.000,-0.472,0.786,-72.708,30.52,-11.48,-71.28,100,27.57
2025-12-11 22:16:01.255,WT901BLE67,90856446-A74E-F462-0152-8475C1E77738,1.401,-1.033,0.795,0.000,0.000,0.000,-0.472,0.786,-72.708,30.52,-11.48,-71.28,100,27.57
2025-12-11 22:16:01.260,WT901BLE67,90856446-A74E-F462-0152-8475C1E77738,1.401,-1.033,0.795,0.000,0.000,0.000,-0.472,0.786,-72.708,30.52,-11.48,-71.28,100,27.57
2025-12-11 22:16:01.265,WT901BLE67,90856446-A74E-F462-0152-8475C1E77738,1.401,-1.033,0.795,0.000,0.000,0.000,-0.472,0.786,-72.708,30.52,-11.48,-71.28,100,27.57
2025-12-11 22:16:01.270,WT901BLE67,90856446-A74E-F462-0152-8475C1E77738,1.401,-1.033,0.795,0.000,0.000,0.000,-0.472,0.786,-72.708,30.52,-11.48,-71.28,100,27.57
2025-12-11 22:16:01.275,WT901BLE67,90856446-A74E-F462-0152-8475C1E77738,1.401,-1.033,0.795,0.000,0.000,0.000,-0.472,0.786,-72.708,30.52,-11.48,-71.28,100,27.57
2025-12-11 22:16:01.278,WT901BLE67,90856446-A74E-F462-0152-8475C1E77738,1.402,-1.034,0.795,0.000,0.000,0.000,-0.472,0.786,-72.708,30.52,-11.48,-71.28,100,27.57
2025-12-11 22:16:01.278,WT901BLE67,90856446-A74E-F462-0152-8475C1E77738,1.400,-1.034,0.797,0.000,0.000,0.000,-0.472,0.786,-72.708,30.52,-11.48,-71.28,100,27.57
2025-12-11 22:16:01.280,WT901BLE67,90856446-A74E-F462-0152-8475C1E77738,1.400,-1.034,0.797,0.000,0.000,0.000,-0.472,0.786,-72.708,30.52,-11.48,-71.28,100,27.57
2025-12-11 22:16:01.285,WT901BLE67,90856446-A74E-F462-0152-8475C1E77738,1.400,-1.034,0.797,0.000,0.000,0.000,-0.472,0.786,-72.708,30.52,-11.48,-71.28,100,27.57
2025-12-11 22:16:01.290,WT901BLE67,90856446-A74E-F462-0152-8475C1E77738,1.400,-1.034,0.797,0.000,0.000,0.000,-0.472,0.786,-72.708,30.52,-11.48,-71.28,100,27.57
2025-12-11 22:16:01.297,WT901BLE67,90856446-A74E-F462-0152-8475C1E77738,1.400,-1.034,0.797,0.000,0.000,0.000,-0.472,0.786,-72.708,30.52,-11.48,-71.28,100,27.57
2025-12-11 22:16:01.300,WT901BLE67,90856446-A74E-F462-0152-8475C1E77738,1.400,-1.034,0.797,0.000,0.000,0.000,-0.472,0.786,-72.708,30.52,-11.48,-71.28,100,27.57
2025-12-11 22:16:01.305,WT901BLE67,90856446-A74E-F462-0152-8475C1E77738,1.400,-1.034,0.797,0.000,0.000,0.000,-0.472,0.786,-72.708,30.52,-11.48,-71.28,100,27.57
2025-12-11 22:16:01.309,WT901BLE67,90856446-A74E-F462-0152-8475C1E77738,1.401,-1.033,0.794,0.000,0.000,0.000,-0.472,0.786,-72.708,30.52,-11.48,-71.28,100,27.57
2025-12-11 22:16:01.309,WT901BLE67,90856446-A74E-F462-0152-8475C1E77738,1.399,-1.033,0.794,0.000,0.000,0.000,-0.472,0.786,-72.708,30.52,-11.48,-71.28,100,27.57
2025-12-11 22:16:01.310,WT901BLE67,90856446-A74E-F462-0152-8475C1E77738,1.399,-1.033,0.794,0.000,0.000,0.000,-0.472,0.786,-72.708,30.52,-11.48,-71.28,100,27.57
2025-12-11 22:16:01.315,WT901BLE67,90856446-A74E-F462-0152-8475C1E77738,1.399,-1.033,0.794,0.000,0.000,0.000,-0.472,0.786,-72.708,30.52,-11.48,-71.28,100,27.57
2025-12-11 22:16:01.320,WT901BLE67,90856446-A74E-F462-0152-8475C1E77738,1.399,-1.033,0.794,0.000,0.000,0.000,-0.472,0.786,-72.708,30.52,-11.48,-71.28,100,27.57
2025-12-11 22:16:01.325,WT901BLE67,90856446-A74E-F462-0152-8475C1E77738,1.399,-1.033,0.794,0.000,0.000,0.000,-0.472,0.786,-72.708,30.52,-11.48,-71.28,100,27.57
2025-12-11 22:16:01.330,WT901BLE67,90856446-A74E-F462-0152-8475C1E77738,1.399,-1.033,0.794,0.000,0.000,0.000,-0.472,0.786,-72.708,30.52,-11.48,-71.28,100,27.57
2025-12-11 22:16:01.335,WT901BLE67,90856446-A74E-F462-0152-8475C1E77738,1.399,-1.033,0.794,0.000,0.000,0.000,-0.472,0.786,-72.708,30.52,-11.48,-71.28,100,27.57
2025-12-11 22:16:01.340,WT901BLE67,90856446-A74E-F462-0152-8475C1E77738,1.401,-1.033,0.795,0.000,0.000,0.000,-0.472,0.786,-72.708,30.52,-11.48,-71.28,100,27.57
2025-12-11 22:16:01.340,WT901BLE67,90856446-A74E-F462-0152-8475C1E77738,1.400,-1.033,0.794,0.000,0.000,0.000,-0.472,0.786,-72.708,30.52,-11.48,-71.28,100,27.57
2025-12-11 22:16:01.340,WT901BLE67,90856446-A74E-F462-0152-8475C1E77738,1.400,-1.033,0.794,0.000,0.000,0.000,-0.472,0.786,-72.708,30.52,-11.48,-71.28,100,27.57
2025-12-11 22:16:01.347,WT901BLE67,90856446-A74E-F462-0152-8475C1E77738,1.400,-1.033,0.794,0.000,0.000,0.000,-0.472,0.786,-72.708,30.52,-11.48,-71.28,100,27.57
2025-12-11 22:16:01.350,WT901BLE67,90856446-A74E-F462-0152-8475C1E77738,1.400,-1.033,0.794,0.000,0.000,0.000,-0.472,0.786,-72.708,30.52,-11.48,-71.28,100,27.57
2025-12-11 22:16:01.355,WT901BLE67,90856446-A74E-F462-0152-8475C1E77738,1.400,-1.033,0.794,0.000,0.000,0.000,-0.472,0.786,-72.708,30.52,-11.48,-71.28,100,27.57
2025-12-11 22:16:01.360,WT901BLE67,90856446-A74E-F462-0152-8475C1E77738,1.400,-1.033,0.794,0.000,0.000,0.000,-0.472,0.786,-72.708,30.52,-11.48,-71.28,100,27.57
2025-12-11 22:16:01.365,WT901BLE67,90856446-A74E-F462-0152-8475C1E77738,1.400,-1.033,0.794,0.000,0.000,0.000,-0.472,0.786,-72.708,30.52,-11.48,-71.28,100,27.57
2025-12-11 22:16:01.370,WT901BLE67,90856446-A74E-F462-0152-8475C1E77738,1.400,-1.033,0.794,0.000,0.000,0.000,-0.472,0.786,-72.708,30.52,-11.48,-71.28,100,27.57
2025-12-11 22:16:01.375,WT901BLE67,90856446-A74E-F462-0152-8475C1E77738,1.400,-1.033,0.794,0.000,0.000,0.000,-0.472,0.786,-72.708,30.52,-11.48,-71.28,100,27.57
2025-12-11 22:16:01.380,WT901BLE67,90856446-A74E-F462-0152-8475C1E77738,1.400,-1.033,0.794,0.000,0.000,0.000,-0.472,0.786,-72.708,30.52,-11.48,-71.28,100,27.57
2025-12-11 22:16:01.385,WT901BLE67,90856446-A74E-F462-0152-8475C1E77738,1.400,-1.033,0.794,0.000,0.000,0.000,-0.472,0.786,-72.708,30.52,-11.48,-71.28,100,27.57
2025-12-11 22:16:01.390,WT901BLE67,90856446-A74E-F462-0152-8475C1E77738,1.400,-1.033,0.794,0.000,0.000,0.000,-0.472,0.786,-72.708,30.52,-11.48,-71.28,100,27.57
2025-12-11 22:16:01.397,WT901BLE67,90856446-A74E-F462-0152-8475C1E77738,1.400,-1.033,0.794,0.000,0.000,0.000,-0.472,0.786,-72.708,30.52,-11.48,-71.28,100,27.57
2025-12-11 22:16:01.399,WT901BLE67,90856446-A74E-F462-0152-8475C1E77738,1.401,-1.034,0.794,0.000,0.000,0.000,-0.472,0.786,-72.708,30.52,-11.48,-71.28,100,27.57
2025-12-11 22:16:01.399,WT901BLE67,90856446-A74E-F462-0152-8475C1E77738,1.401,-1.034,0.796,0.000,0.000,0.000,-0.472,0.786,-72.708,30.52,-11.48,-71.28,100,27.57
2025-12-11 22:16:01.400,WT901BLE67,90856446-A74E-F462-0152-8475C1E77738,1.401,-1.034,0.796,0.000,0.000,0.000,-0.472,0.786,-72.708,30.52,-11.48,-71.28,100,27.57
2025-12-11 22:16:01.405,WT901BLE67,90856446-A74E-F462-0152-8475C1E77738,1.401,-1.034,0.796,0.000,0.000,0.000,-0.472,0.786,-72.708,30.52,-11.48,-71.28,100,27.57
2025-12-11 22:16:01.410,WT901BLE67,90856446-A74E-F462-0152-8475C1E77738,1.401,-1.034,0.796,0.000,0.000,0.000,-0.472,0.786,-72.708,30.52,-11.48,-71.28,100,27.57
2025-12-11 22:16:01.415,WT901BLE67,90856446-A74E-F462-0152-8475C1E77738,1.401,-1.034,0.796,0.000,0.000,0.000,-0.472,0.786,-72.708,30.52,-11.48,-71.28,100,27.57
2025-12-11 22:16:01.420,WT901BLE67,90856446-A74E-F462-0152-8475C1E77738,1.401,-1.034,0.796,0.000,0.000,0.000,-0.472,0.786,-72.708,30.52,-11.48,-71.28,100,27.57
2025-12-11 22:16:01.425,WT901BLE67,90856446-A74E-F462-0152-8475C1E77738,1.401,-1.034,0.796,0.000,0.000,0.000,-0.472,0.786,-72.708,30.52,-11.48,-71.28,100,27.57
2025-12-11 22:16:01.428,WT901BLE67,90856446-A74E-F462-0152-8475C1E77738,1.399,-1.033,0.795,0.000,0.000,0.000,-0.472,0.786,-72.708,30.52,-11.48,-71.28,100,27.57
2025-12-11 22:16:01.428,WT901BLE67,90856446-A74E-F462-0152-8475C1E77738,1.401,-1.033,0.794,0.000,0.000,0.000,-0.472,0.786,-72.708,30.52,-11.48,-71.28,100,27.57
2025-12-11 22:16:01.430,WT901BLE67,90856446-A74E-F462-0152-8475C1E77738,1.401,-1.033,0.794,0.000,0.000,0.000,-0.472,0.786,-72.708,30.52,-11.48,-71.28,100,27.57
2025-12-11 22:16:01.435,WT901BLE67,90856446-A74E-F462-0152-8475C1E77738,1.401,-1.033,0.794,0.000,0.000,0.000,-0.472,0.786,-72.708,30.52,-11.48,-71.28,100,27.57
2025-12-11 22:16:01.440,WT901BLE67,90856446-A74E-F462-0152-8475C1E77738,1.401,-1.033,0.794,0.000,0.000,0.000,-0.472,0.786,-72.708,30.52,-11.48,-71.28,100,27.57
2025-12-11 22:16:01.447,WT901BLE67,90856446-A74E-F462-0152-8475C1E77738,1.401,-1.033,0.794,0.000,0.000,0.000,-0.472,0.786,-72.708,30.52,-11.48,-71.28,100,27.57
2025-12-11 22:16:01.450,WT901BLE67,90856446-A74E-F462-0152-8475C1E77738,1.401,-1.033,0.794,0.000,0.000,0.000,-0.472,0.786,-72.708,30.52,-11.48,-71.28,100,27.57
2025-12-11 22:16:01.455,WT901BLE67,90856446-A74E-F462-0152-8475C1E77738,1.401,-1.033,0.794,0.000,0.000,0.000,-0.472,0.786,-72.708,30.52,-11.48,-71.28,100,27.57
2025-12-11 22:16:01.458,WT901BLE67,90856446-A74E-F462-0152-8475C1E77738,1.401,-1.033,0.796,0.000,0.000,0.000,-0.472,0.786,-72.708,30.52,-11.48,-71.28,100,27.57
2025-12-11 22:16:01.458,WT901BLE67,90856446-A74E-F462-0152-8475C1E77738,1.400,-1.034,0.796,0.000,0.000,0.000,-0.472,0.786,-72.708,30.52,-11.48,-71.28,100,27.57
2025-12-11 22:16:01.460,WT901BLE67,90856446-A74E-F462-0152-8475C1E77738,1.400,-1.034,0.796,0.000,0.000,0.000,-0.472,0.786,-72.708,30.52,-11.48,-71.28,100,27.57
2025-12-11 22:16:01.465,WT901BLE67,90856446-A74E-F462-0152-8475C1E77738,1.400,-1.034,0.796,0.000,0.000,0.000,-0.472,0.786,-72.708,30.52,-11.48,-71.28,100,27.57
2025-12-11 22:16:01.470,WT901BLE67,90856446-A74E-F462-0152-8475C1E77738,1.400,-1.034,0.796,0.000,0.000,0.000,-0.472,0.786,-72.708,30.52,-11.48,-71.28,100,27.57
2025-12-11 22:16:01.475,WT901BLE67,90856446-A74E-F462-0152-8475C1E77738,1.400,-1.034,0.796,0.000,0.000,0.000,-0.472,0.786,-72.708,30.52,-11.48,-71.28,100,27.57
2025-12-11 22:16:01.480,WT901BLE67,90856446-A74E-F462-0152-8475C1E77738,1.400,-1.034,0.796,0.000,0.000,0.000,-0.472,0.786,-72.708,30.52,-11.48,-71.28,100,27.57
2025-12-11 22:16:01.485,WT901BLE67,90856446-A74E-F462-0152-8475C1E77738,1.400,-1.034,0.796,0.000,0.000,0.000,-0.472,0.786,-72.708,30.52,-11.48,-71.28,100,27.57
2025-12-11 22:16:01.490,WT901BLE67,90856446-A74E-F462-0152-8475C1E77738,1.400,-1.034,0.796,0.000,0.000,0.000,-0.472,0.786,-72.708,30.52,-11.48,-71.28,100,27.57
2025-12-11 22:16:01.497,WT901BLE67,90856446-A74E-F462-0152-8475C1E77738,1.400,-1.034,0.796,0.000,0.000,0.000,-0.472,0.786,-72.708,30.52,-11.48,-71.28,100,27.57
2025-12-11 22:16:01.500,WT901BLE67,90856446-A74E-F462-0152-8475C1E77738,1.400,-1.034,0.796,0.000,0.000,0.000,-0.472,0.786,-72.708,30.52,-11.48,-71.28,100,27.57
2025-12-11 22:16:01.505,WT901BLE67,90856446-A74E-F462-0152-8475C1E77738,1.400,-1.034,0.796,0.000,0.000,0.000,-0.472,0.786,-72.708,30.52,-11.48,-71.28,100,27.57
2025-12-11 22:16:01.510,WT901BLE67,90856446-A74E-F462-0152-8475C1E77738,1.400,-1.034,0.796,0.000,0.000,0.000,-0.472,0.786,-72.708,30.52,-11.48,-71.28,100,27.57
2025-12-11 22:16:01.515,WT901BLE67,90856446-A74E-F462-0152-8475C1E77738,1.400,-1.034,0.796,0.000,0.000,0.000,-0.472,0.786,-72.708,30.52,-11.48,-71.28,100,27.57
2025-12-11 22:16:01.518,WT901BLE67,90856446-A74E-F462-0152-8475C1E77738,1.399,-1.035,0.794,0.000,0.000,0.000,-0.472,0.786,-72.708,30.52,-11.48,-71.28,100,27.57
2025-12-11 22:16:01.518,WT901BLE67,90856446-A74E-F462-0152-8475C1E77738,1.400,-1.032,0.797,0.000,0.000,0.000,-0.472,0.786,-72.708,30.52,-11.48,-71.28,100,27.57
2025-12-11 22:16:01.520,WT901BLE67,90856446-A74E-F462-0152-8475C1E77738,1.400,-1.032,0.797,0.000,0.000,0.000,-0.472,0.786,-72.708,30.52,-11.48,-71.28,100,27.57
2025-12-11 22:16:01.525,WT901BLE67,90856446-A74E-F462-0152-8475C1E77738,1.400,-1.032,0.797,0.000,0.000,0.000,-0.472,0.786,-72.708,30.52,-11.48,-71.28,100,27.57
2025-12-11 22:16:01.530,WT901BLE67,90856446-A74E-F462-0152-8475C1E77738,1.400,-1.032,0.797,0.000,0.000,0.000,-0.472,0.786,-72.708,30.52,-11.48,-71.28,100,27.57
2025-12-11 22:16:01.535,WT901BLE67,90856446-A74E-F462-0152-8475C1E77738,1.400,-1.032,0.797,0.000,0.000,0.000,-0.472,0.786,-72.708,30.52,-11.48,-71.28,100,27.57
2025-12-11 22:16:01.540,WT901BLE67,90856446-A74E-F462-0152-8475C1E77738,1.400,-1.032,0.797,0.000,0.000,0.000,-0.472,0.786,-72.708,30.52,-11.48,-71.28,100,27.57
2025-12-11 22:16:01.547,WT901BLE67,90856446-A74E-F462-0152-8475C1E77738,1.400,-1.032,0.797,0.000,0.000,0.000,-0.472,0.786,-72.708,30.52,-11.48,-71.28,100,27.57
2025-12-11 22:16:01.549,WT901BLE67,90856446-A74E-F462-0152-8475C1E77738,1.400,-1.033,0.796,0.000,0.000,0.000,-0.472,0.786,-72.708,30.52,-11.48,-71.28,100,27.57
2025-12-11 22:16:01.549,WT901BLE67,90856446-A74E-F462-0152-8475C1E77738,1.400,-1.034,0.797,0.000,0.000,0.000,-0.472,0.786,-72.708,30.52,-11.48,-71.28,100,27.57
2025-12-11 22:16:01.550,WT901BLE67,90856446-A74E-F462-0152-8475C1E77738,1.400,-1.034,0.797,0.000,0.000,0.000,-0.472,0.786,-72.708,30.52,-11.48,-71.28,100,27.57
2025-12-11 22:16:01.555,WT901BLE67,90856446-A74E-F462-0152-8475C1E77738,1.400,-1.034,0.797,0.000,0.000,0.000,-0.472,0.786,-72.708,30.52,-11.48,-71.28,100,27.57
2025-12-11 22:16:01.560,WT901BLE67,90856446-A74E-F462-0152-8475C1E77738,1.400,-1.034,0.797,0.000,0.000,0.000,-0.472,0.786,-72.708,30.52,-11.48,-71.28,100,27.57
2025-12-11 22:16:01.565,WT901BLE67,90856446-A74E-F462-0152-8475C1E77738,1.400,-1.034,0.797,0.000,0.000,0.000,-0.472,0.786,-72.708,30.52,-11.48,-71.28,100,27.57
2025-12-11 22:16:01.570,WT901BLE67,90856446-A74E-F462-0152-8475C1E77738,1.400,-1.034,0.797,0.000,0.000,0.000,-0.472,0.786,-72.708,30.52,-11.48,-71.28,100,27.57
2025-12-11 22:16:01.575,WT901BLE67,90856446-A74E-F462-0152-8475C1E77738,1.400,-1.034,0.797,0.000,0.000,0.000,-0.472,0.786,-72.708,30.52,-11.48,-71.28,100,27.57
2025-12-11 22:16:01.578,WT901BLE67,90856446-A74E-F462-0152-8475C1E77738,1.401,-1.034,0.795,0.000,0.000,0.000,-0.472,0.786,-72.708,30.52,-11.48,-71.28,100,27.57
2025-12-11 22:16:01.578,WT901BLE67,90856446-A74E-F462-0152-8475C1E77738,1.401,-1.034,0.797,0.000,0.000,0.000,-0.472,0.786,-72.708,30.52,-11.48,-71.28,100,27.57
2025-12-11 22:16:01.580,WT901BLE67,90856446-A74E-F462-0152-8475C1E77738,1.401,-1.034,0.797,0.000,0.000,0.000,-0.472,0.786,-72.708,30.52,-11.48,-71.28,100,27.57
2025-12-11 22:16:01.585,WT901BLE67,90856446-A74E-F462-0152-8475C1E77738,1.401,-1.034,0.797,0.000,0.000,0.000,-0.472,0.786,-72.708,30.52,-11.48,-71.28,100,27.57
2025-12-11 22:16:01.590,WT901BLE67,90856446-A74E-F462-0152-8475C1E77738,1.401,-1.034,0.797,0.000,0.000,0.000,-0.472,0.786,-72.708,30.52,-11.48,-71.28,100,27.57
2025-12-11 22:16:01.597,WT901BLE67,90856446-A74E-F462-0152-8475C1E77738,1.401,-1.034,0.797,0.000,0.000,0.000,-0.472,0.786,-72.708,30.52,-11.48,-71.28,100,27.57
2025-12-11 22:16:01.600,WT901BLE67,90856446-A74E-F462-0152-8475C1E77738,1.401,-1.034,0.797,0.000,0.000,0.000,-0.472,0.786,-72.708,30.52,-11.48,-71.28,100,27.57
2025-12-11 22:16:01.605,WT901BLE67,90856446-A74E-F462-0152-8475C1E77738,1.401,-1.034,0.797,0.000,0.000,0.000,-0.472,0.786,-72.708,30.52,-11.48,-71.28,100,27.57
2025-12-11 22:16:01.610,WT901BLE67,90856446-A74E-F462-0152-8475C1E77738,1.401,-1.034,0.797,0.000,0.000,0.000,-0.472,0.786,-72.708,30.52,-11.48,-71.28,100,27.57
2025-12-11 22:16:01.615,WT901BLE67,90856446-A74E-F462-0152-8475C1E77738,1.401,-1.034,0.797,0.000,0.000,0.000,-0.472,0.786,-72.708,30.52,-11.48,-71.28,100,27.57
2025-12-11 22:16:01.620,WT901BLE67,90856446-A74E-F462-0152-8475C1E77738,1.401,-1.034,0.797,0.000,0.000,0.000,-0.472,0.786,-72.708,30.52,-11.48,-71.28,100,27.57
2025-12-11 22:16:01.625,WT901BLE67,90856446-A74E-F462-0152-8475C1E77738,1.401,-1.034,0.797,0.000,0.000,0.000,-0.472,0.786,-72.708,30.52,-11.48,-71.28,100,27.57
2025-12-11 22:16:01.630,WT901BLE67,90856446-A74E-F462-0152-8475C1E77738,1.401,-1.034,0.797,0.000,0.000,0.000,-0.472,0.786,-72.708,30.52,-11.48,-71.28,100,27.57
2025-12-11 22:16:01.635,WT901BLE67,90856446-A74E-F462-0152-8475C1E77738,1.401,-1.034,0.797,0.000,0.000,0.000,-0.472,0.786,-72.708,30.52,-11.48,-71.28,100,27.57
2025-12-11 22:16:01.638,WT901BLE67,90856446-A74E-F462-0152-8475C1E77738,1.401,-1.033,0.798,0.000,0.000,0.000,-0.472,0.786,-72.708,30.52,-11.48,-71.28,100,27.57
2025-12-11 22:16:01.638,WT901BLE67,90856446-A74E-F462-0152-8475C1E77738,1.400,-1.033,0.795,0.000,0.000,0.000,-0.472,0.786,-72.708,30.52,-11.48,-71.28,100,27.57
2025-12-11 22:16:01.640,WT901BLE67,90856446-A74E-F462-0152-8475C1E77738,1.400,-1.033,0.795,0.000,0.000,0.000,-0.472,0.786,-72.708,30.52,-11.48,-71.28,100,27.57
2025-12-11 22:16:01.647,WT901BLE67,90856446-A74E-F462-0152-8475C1E77738,1.400,-1.033,0.795,0.000,0.000,0.000,-0.472,0.786,-72.708,30.52,-11.48,-71.28,100,27.57
2025-12-11 22:16:01.650,WT901BLE67,90856446-A74E-F462-0152-8475C1E77738,1.400,-1.033,0.795,0.000,0.000,0.000,-0.472,0.786,-72.708,30.52,-11.48,-71.28,100,27.57
2025-12-11 22:16:01.655,WT901BLE67,90856446-A74E-F462-0152-8475C1E77738,1.400,-1.033,0.795,0.000,0.000,0.000,-0.472,0.786,-72.708,30.52,-11.48,-71.28,100,27.57
2025-12-11 22:16:01.660,WT901BLE67,90856446-A74E-F462-0152-8475C1E77738,1.400,-1.033,0.795,0.000,0.000,0.000,-0.472,0.786,-72.708,30.52,-11.48,-71.28,100,27.57
2025-12-11 22:16:01.665,WT901BLE67,90856446-A74E-F462-0152-8475C1E77738,1.400,-1.033,0.795,0.000,0.000,0.000,-0.472,0.786,-72.708,30.52,-11.48,-71.28,100,27.57
2025-12-11 22:16:01.668,WT901BLE67,90856446-A74E-F462-0152-8475C1E77738,1.398,-1.034,0.796,0.000,0.000,0.000,-0.472,0.786,-72.708,30.52,-11.48,-71.28,100,27.57
2025-12-11 22:16:01.668,WT901BLE67,90856446-A74E-F462-0152-8475C1E77738,1.400,-1.033,0.795,0.000,0.000,0.000,-0.472,0.786,-72.708,30.52,-11.48,-71.28,100,27.57
2025-12-11 22:16:01.670,WT901BLE67,90856446-A74E-F462-0152-8475C1E77738,1.400,-1.033,0.795,0.000,0.000,0.000,-0.472,0.786,-72.708,30.52,-11.48,-71.28,100,27.57
2025-12-11 22:16:01.675,WT901BLE67,90856446-A74E-F462-0152-8475C1E77738,1.400,-1.033,0.795,0.000,0.000,0.000,-0.472,0.786,-72.708,30.52,-11.48,-71.28,100,27.57
2025-12-11 22:16:01.680,WT901BLE67,90856446-A74E-F462-0152-8475C1E77738,1.400,-1.033,0.795,0.000,0.000,0.000,-0.472,0.786,-72.708,30.52,-11.48,-71.28,100,27.57
2025-12-11 22:16:01.685,WT901BLE67,90856446-A74E-F462-0152-8475C1E77738,1.400,-1.033,0.795,0.000,0.000,0.000,-0.472,0.786,-72.708,30.52,-11.48,-71.28,100,27.57
2025-12-11 22:16:01.690,WT901BLE67,90856446-A74E-F462-0152-8475C1E77738,1.400,-1.033,0.795,0.000,0.000,0.000,-0.472,0.786,-72.708,30.52,-11.48,-71.28,100,27.57
2025-12-11 22:16:01.697,WT901BLE67,90856446-A74E-F462-0152-8475C1E77738,1.400,-1.033,0.795,0.000,0.000,0.000,-0.472,0.786,-72.708,30.52,-11.48,-71.28,100,27.57
2025-12-11 22:16:01.699,WT901BLE67,90856446-A74E-F462-0152-8475C1E77738,1.400,-1.033,0.797,0.000,0.000,0.000,-0.472,0.786,-72.708,30.52,-11.48,-71.28,100,27.57
2025-12-11 22:16:01.699,WT901BLE67,90856446-A74E-F462-0152-8475C1E77738,1.398,-1.032,0.796,0.000,0.000,0.000,-0.472,0.786,-72.708,30.52,-11.48,-71.28,100,27.57
2025-12-11 22:16:01.700,WT901BLE67,90856446-A74E-F462-0152-8475C1E77738,1.398,-1.032,0.796,0.000,0.000,0.000,-0.472,0.786,-72.708,30.52,-11.48,-71.28,100,27.57
2025-12-11 22:16:01.705,WT901BLE67,90856446-A74E-F462-0152-8475C1E77738,1.398,-1.032,0.796,0.000,0.000,0.000,-0.472,0.786,-72.708,30.52,-11.48,-71.28,100,27.57
2025-12-11 22:16:01.710,WT901BLE67,90856446-A74E-F462-0152-8475C1E77738,1.398,-1.032,0.796,0.000,0.000,0.000,-0.472,0.786,-72.708,30.52,-11.48,-71.28,100,27.57
2025-12-11 22:16:01.715,WT901BLE67,90856446-A74E-F462-0152-8475C1E77738,1.398,-1.032,0.796,0.000,0.000,0.000,-0.472,0.786,-72.708,30.52,-11.48,-71.28,100,27.57
2025-12-11 22:16:01.720,WT901BLE67,90856446-A74E-F462-0152-8475C1E77738,1.398,-1.032,0.796,0.000,0.000,0.000,-0.472,0.786,-72.708,30.52,-11.48,-71.28,100,27.57
2025-12-11 22:16:01.725,WT901BLE67,90856446-A74E-F462-0152-8475C1E77738,1.398,-1.032,0.796,0.000,0.000,0.000,-0.472,0.786,-72.708,30.52,-11.48,-71.28,100,27.57
2025-12-11 22:16:01.730,WT901BLE67,90856446-A74E-F462-0152-8475C1E77738,1.398,-1.032,0.796,0.000,0.000,0.000,-0.472,0.786,-72.708,30.52,-11.48,-71.28,100,27.57
2025-12-11 22:16:01.735,WT901BLE67,90856446-A74E-F462-0152-8475C1E77738,1.398,-1.032,0.796,0.000,0.000,0.000,-0.472,0.786,-72.708,30.52,-11.48,-71.28,100,27.57
2025-12-11 22:16:01.740,WT901BLE67,90856446-A74E-F462-0152-8475C1E77738,1.398,-1.032,0.796,0.000,0.000,0.000,-0.472,0.786,-72.708,30.52,-11.48,-71.28,100,27.57
2025-12-11 22:16:01.747,WT901BLE67,90856446-A74E-F462-0152-8475C1E77738,1.398,-1.032,0.796,0.000,0.000,0.000,-0.472,0.786,-72.708,30.52,-11.48,-71.28,100,27.57
2025-12-11 22:16:01.750,WT901BLE67,90856446-A74E-F462-0152-8475C1E77738,1.398,-1.032,0.796,0.000,0.000,0.000,-0.472,0.786,-72.708,30.52,-11.48,-71.28,100,27.57
2025-12-11 22:16:01.755,WT901BLE67,90856446-A74E-F462-0152-8475C1E77738,1.398,-1.032,0.796,0.000,0.000,0.000,-0.472,0.786,-72.708,30.52,-11.48,-71.28,100,27.57
2025-12-11 22:16:01.758,WT901BLE67,90856446-A74E-F462-0152-8475C1E77738,1.400,-1.034,0.795,0.000,0.000,0.000,-0.472,0.786,-72.708,30.52,-11.48,-71.28,100,27.57
2025-12-11 22:16:01.758,WT901BLE67,90856446-A74E-F462-0152-8475C1E77738,1.400,-1.034,0.795,0.000,0.000,0.000,-0.472,0.786,-72.708,30.52,-11.48,-71.28,100,27.57
2025-12-11 22:16:01.760,WT901BLE67,90856446-A74E-F462-0152-8475C1E77738,1.400,-1.034,0.795,0.000,0.000,0.000,-0.472,0.786,-72.708,30.52,-11.48,-71.28,100,27.57
2025-12-11 22:16:01.765,WT901BLE67,90856446-A74E-F462-0152-8475C1E77738,1.400,-1.034,0.795,0.000,0.000,0.000,-0.472,0.786,-72.708,30.52,-11.48,-71.28,100,27.57
2025-12-11 22:16:01.771,WT901BLE67,90856446-A74E-F462-0152-8475C1E77738,1.400,-1.034,0.795,0.000,0.000,0.000,-0.472,0.786,-72.708,30.52,-11.48,-71.28,100,27.57
2025-12-11 22:16:01.775,WT901BLE67,90856446-A74E-F462-0152-8475C1E77738,1.400,-1.034,0.795,0.000,0.000,0.000,-0.472,0.786,-72.708,30.52,-11.48,-71.28,100,27.57
2025-12-11 22:16:01.780,WT901BLE67,90856446-A74E-F462-0152-8475C1E77738,1.400,-1.034,0.795,0.000,0.000,0.000,-0.472,0.786,-72.708,30.52,-11.48,-71.28,100,27.57
2025-12-11 22:16:01.785,WT901BLE67,90856446-A74E-F462-0152-8475C1E77738,1.400,-1.034,0.795,0.000,0.000,0.000,-0.472,0.786,-72.708,30.52,-11.48,-71.28,100,27.57
2025-12-11 22:16:01.788,WT901BLE67,90856446-A74E-F462-0152-8475C1E77738,1.400,-1.034,0.794,0.000,0.000,0.000,-0.472,0.786,-72.708,30.52,-11.48,-71.28,100,27.57
2025-12-11 22:16:01.788,WT901BLE67,90856446-A74E-F462-0152-8475C1E77738,1.400,-1.033,0.796,0.000,0.000,0.000,-0.472,0.786,-72.708,30.52,-11.48,-71.28,100,27.57
2025-12-11 22:16:01.790,WT901BLE67,90856446-A74E-F462-0152-8475C1E77738,1.400,-1.033,0.796,0.000,0.000,0.000,-0.472,0.786,-72.708,30.52,-11.48,-71.28,100,27.57
2025-12-11 22:16:01.797,WT901BLE67,90856446-A74E-F462-0152-8475C1E77738,1.400,-1.033,0.796,0.000,0.000,0.000,-0.472,0.786,-72.708,30.52,-11.48,-71.28,100,27.57
2025-12-11 22:16:01.800,WT901BLE67,90856446-A74E-F462-0152-8475C1E77738,1.400,-1.033,0.796,0.000,0.000,0.000,-0.472,0.786,-72.708,30.52,-11.48,-71.28,100,27.57
2025-12-11 22:16:01.805,WT901BLE67,90856446-A74E-F462-0152-8475C1E77738,1.400,-1.033,0.796,0.000,0.000,0.000,-0.472,0.786,-72.708,30.52,-11.48,-71.28,100,27.57
2025-12-11 22:16:01.810,WT901BLE67,90856446-A74E-F462-0152-8475C1E77738,1.400,-1.033,0.796,0.000,0.000,0.000,-0.472,0.786,-72.708,30.52,-11.48,-71.28,100,27.57
2025-12-11 22:16:01.815,WT901BLE67,90856446-A74E-F462-0152-8475C1E77738,1.400,-1.033,0.796,0.000,0.000,0.000,-0.472,0.786,-72.708,30.52,-11.48,-71.28,100,27.57
2025-12-11 22:16:01.818,WT901BLE67,90856446-A74E-F462-0152-8475C1E77738,1.397,-1.032,0.795,0.000,0.000,0.000,-0.472,0.786,-72.708,30.52,-11.48,-71.28,100,27.57
2025-12-11 22:16:01.818,WT901BLE67,90856446-A74E-F462-0152-8475C1E77738,1.399,-1.034,0.797,0.000,0.000,0.000,-0.472,0.786,-72.708,30.52,-11.48,-71.28,100,27.57
2025-12-11 22:16:01.820,WT901BLE67,90856446-A74E-F462-0152-8475C1E77738,1.399,-1.034,0.797,0.000,0.000,0.000,-0.472,0.786,-72.708,30.52,-11.48,-71.28,100,27.57
2025-12-11 22:16:01.825,WT901BLE67,90856446-A74E-F462-0152-8475C1E77738,1.399,-1.034,0.797,0.000,0.000,0.000,-0.472,0.786,-72.708,30.52,-11.48,-71.28,100,27.57
2025-12-11 22:16:01.830,WT901BLE67,90856446-A74E-F462-0152-8475C1E77738,1.399,-1.034,0.797,0.000,0.000,0.000,-0.472,0.786,-72.708,30.52,-11.48,-71.28,100,27.57
2025-12-11 22:16:01.835,WT901BLE67,90856446-A74E-F462-0152-8475C1E77738,1.399,-1.034,0.797,0.000,0.000,0.000,-0.472,0.786,-72.708,30.52,-11.48,-71.28,100,27.57
2025-12-11 22:16:01.840,WT901BLE67,90856446-A74E-F462-0152-8475C1E77738,1.399,-1.034,0.797,0.000,0.000,0.000,-0.472,0.786,-72.708,30.52,-11.48,-71.28,100,27.57
2025-12-11 22:16:01.847,WT901BLE67,90856446-A74E-F462-0152-8475C1E77738,1.399,-1.034,0.797,0.000,0.000,0.000,-0.472,0.786,-72.708,30.52,-11.48,-71.28,100,27.57
2025-12-11 22:16:01.850,WT901BLE67,90856446-A74E-F462-0152-8475C1E77738,1.399,-1.034,0.797,0.000,0.000,0.000,-0.472,0.786,-72.708,30.52,-11.48,-71.28,100,27.57
2025-12-11 22:16:01.855,WT901BLE67,90856446-A74E-F462-0152-8475C1E77738,1.399,-1.034,0.797,0.000,0.000,0.000,-0.472,0.786,-72.708,30.52,-11.48,-71.28,100,27.57
2025-12-11 22:16:01.861,WT901BLE67,90856446-A74E-F462-0152-8475C1E77738,1.399,-1.034,0.797,0.000,0.000,0.000,-0.472,0.786,-72.708,30.52,-11.48,-71.28,100,27.57
2025-12-11 22:16:01.865,WT901BLE67,90856446-A74E-F462-0152-8475C1E77738,1.399,-1.034,0.797,0.000,0.000,0.000,-0.472,0.786,-72.708,30.52,-11.48,-71.28,100,27.57
2025-12-11 22:16:01.870,WT901BLE67,90856446-A74E-F462-0152-8475C1E77738,1.399,-1.034,0.797,0.000,0.000,0.000,-0.472,0.786,-72.708,30.52,-11.48,-71.28,100,27.57
2025-12-11 22:16:01.875,WT901BLE67,90856446-A74E-F462-0152-8475C1E77738,1.399,-1.034,0.797,0.000,0.000,0.000,-0.472,0.786,-72.708,30.52,-11.48,-71.28,100,27.57
2025-12-11 22:16:01.878,WT901BLE67,90856446-A74E-F462-0152-8475C1E77738,1.400,-1.035,0.795,0.000,0.000,0.000,-0.472,0.786,-72.708,30.74,-11.54,-70.78,100,27.57
2025-12-11 22:16:01.880,WT901BLE67,90856446-A74E-F462-0152-8475C1E77738,1.400,-1.035,0.795,0.000,0.000,0.000,-0.472,0.786,-72.708,30.74,-11.54,-70.78,100,27.57
2025-12-11 22:16:01.885,WT901BLE67,90856446-A74E-F462-0152-8475C1E77738,1.400,-1.035,0.795,0.000,0.000,0.000,-0.472,0.786,-72.708,30.74,-11.54,-70.78,100,27.57
2025-12-11 22:16:01.890,WT901BLE67,90856446-A74E-F462-0152-8475C1E77738,1.400,-1.035,0.795,0.000,0.000,0.000,-0.472,0.786,-72.708,30.74,-11.54,-70.78,100,27.57
2025-12-11 22:16:01.897,WT901BLE67,90856446-A74E-F462-0152-8475C1E77738,1.400,-1.035,0.795,0.000,0.000,0.000,-0.472,0.786,-72.708,30.74,-11.54,-70.78,100,27.57
2025-12-11 22:16:01.900,WT901BLE67,90856446-A74E-F462-0152-8475C1E77738,1.400,-1.035,0.795,0.000,0.000,0.000,-0.472,0.786,-72.708,30.74,-11.54,-70.78,100,27.57
2025-12-11 22:16:01.905,WT901BLE67,90856446-A74E-F462-0152-8475C1E77738,1.400,-1.035,0.795,0.000,0.000,0.000,-0.472,0.786,-72.708,30.74,-11.54,-70.78,100,27.57
2025-12-11 22:16:01.907,WT901BLE67,90856446-A74E-F462-0152-8475C1E77738,1.401,-1.033,0.796,0.000,0.000,0.000,-0.472,0.786,-72.708,30.74,-11.54,-70.78,100,27.57
2025-12-11 22:16:01.907,WT901BLE67,90856446-A74E-F462-0152-8475C1E77738,1.401,-1.033,0.795,0.000,0.000,0.000,-0.472,0.786,-72.708,30.74,-11.54,-70.78,100,27.57
2025-12-11 22:16:01.910,WT901BLE67,90856446-A74E-F462-0152-8475C1E77738,1.401,-1.033,0.795,0.000,0.000,0.000,-0.472,0.786,-72.708,30.74,-11.54,-70.78,100,27.57
2025-12-11 22:16:01.915,WT901BLE67,90856446-A74E-F462-0152-8475C1E77738,1.401,-1.033,0.795,0.000,0.000,0.000,-0.472,0.786,-72.708,30.74,-11.54,-70.78,100,27.57
2025-12-11 22:16:01.920,WT901BLE67,90856446-A74E-F462-0152-8475C1E77738,1.401,-1.033,0.795,0.000,0.000,0.000,-0.472,0.786,-72.708,30.74,-11.54,-70.78,100,27.57
2025-12-11 22:16:01.925,WT901BLE67,90856446-A74E-F462-0152-8475C1E77738,1.401,-1.033,0.795,0.000,0.000,0.000,-0.472,0.786,-72.708,30.74,-11.54,-70.78,100,27.57
2025-12-11 22:16:01.930,WT901BLE67,90856446-A74E-F462-0152-8475C1E77738,1.401,-1.033,0.795,0.000,0.000,0.000,-0.472,0.786,-72.708,30.74,-11.54,-70.78,100,27.57
2025-12-11 22:16:01.935,WT901BLE67,90856446-A74E-F462-0152-8475C1E77738,1.401,-1.033,0.795,0.000,0.000,0.000,-0.472,0.786,-72.708,30.74,-11.54,-70.78,100,27.57
2025-12-11 22:16:01.940,WT901BLE67,90856446-A74E-F462-0152-8475C1E77738,1.401,-1.033,0.795,0.000,0.000,0.000,-0.472,0.786,-72.708,30.74,-11.54,-70.78,100,27.57
2025-12-11 22:16:01.947,WT901BLE67,90856446-A74E-F462-0152-8475C1E77738,1.401,-1.033,0.795,0.000,0.000,0.000,-0.472,0.786,-72.708,30.74,-11.54,-70.78,100,27.57
2025-12-11 22:16:01.950,WT901BLE67,90856446-A74E-F462-0152-8475C1E77738,1.401,-1.033,0.795,0.000,0.000,0.000,-0.472,0.786,-72.708,30.74,-11.54,-70.78,100,27.57
2025-12-11 22:16:01.955,WT901BLE67,90856446-A74E-F462-0152-8475C1E77738,1.401,-1.033,0.795,0.000,0.000,0.000,-0.472,0.786,-72.708,30.74,-11.54,-70.78,100,27.57
2025-12-11 22:16:01.961,WT901BLE67,90856446-A74E-F462-0152-8475C1E77738,1.401,-1.033,0.795,0.000,0.000,0.000,-0.472,0.786,-72.708,30.74,-11.54,-70.78,100,27.57
2025-12-11 22:16:01.965,WT901BLE67,90856446-A74E-F462-0152-8475C1E77738,1.401,-1.033,0.795,0.000,0.000,0.000,-0.472,0.786,-72.708,30.74,-11.54,-70.78,100,27.57
2025-12-11 22:16:01.968,WT901BLE67,90856446-A74E-F462-0152-8475C1E77738,1.399,-1.033,0.796,0.000,0.000,0.000,-0.472,0.786,-72.708,30.74,-11.54,-70.78,100,27.57
2025-12-11 22:16:01.968,WT901BLE67,90856446-A74E-F462-0152-8475C1E77738,1.402,-1.033,0.796,0.000,0.000,0.000,-0.472,0.786,-72.708,30.74,-11.54,-70.78,100,27.57
2025-12-11 22:16:01.970,WT901BLE67,90856446-A74E-F462-0152-8475C1E77738,1.402,-1.033,0.796,0.000,0.000,0.000,-0.472,0.786,-72.708,30.74,-11.54,-70.78,100,27.57
2025-12-11 22:16:01.975,WT901BLE67,90856446-A74E-F462-0152-8475C1E77738,1.402,-1.033,0.796,0.000,0.000,0.000,-0.472,0.786,-72.708,30.74,-11.54,-70.78,100,27.57
2025-12-11 22:16:01.980,WT901BLE67,90856446-A74E-F462-0152-8475C1E77738,1.402,-1.033,0.796,0.000,0.000,0.000,-0.472,0.786,-72.708,30.74,-11.54,-70.78,100,27.57
2025-12-11 22:16:01.985,WT901BLE67,90856446-A74E-F462-0152-8475C1E77738,1.402,-1.033,0.796,0.000,0.000,0.000,-0.472,0.786,-72.708,30.74,-11.54,-70.78,100,27.57
2025-12-11 22:16:01.990,WT901BLE67,90856446-A74E-F462-0152-8475C1E77738,1.402,-1.033,0.796,0.000,0.000,0.000,-0.472,0.786,-72.708,30.74,-11.54,-70.78,100,27.57
2025-12-11 22:16:01.997,WT901BLE67,90856446-A74E-F462-0152-8475C1E77738,1.402,-1.033,0.796,0.000,0.000,0.000,-0.472,0.786,-72.708,30.74,-11.54,-70.78,100,27.57
2025-12-11 22:16:01.997,WT901BLE67,90856446-A74E-F462-0152-8475C1E77738,1.400,-1.033,0.795,0.000,0.000,0.000,-0.472,0.786,-72.708,30.74,-11.54,-70.78,100,27.57
2025-12-11 22:16:01.997,WT901BLE67,90856446-A74E-F462-0152-8475C1E77738,1.401,-1.034,0.797,0.000,0.000,0.000,-0.472,0.786,-72.708,30.74,-11.54,-70.78,100,27.57
2025-12-11 22:16:02.000,WT901BLE67,90856446-A74E-F462-0152-8475C1E77738,1.401,-1.034,0.797,0.000,0.000,0.000,-0.472,0.786,-72.708,30.74,-11.54,-70.78,100,27.57
2025-12-11 22:16:02.005,WT901BLE67,90856446-A74E-F462-0152-8475C1E77738,1.401,-1.034,0.797,0.000,0.000,0.000,-0.472,0.786,-72.708,30.74,-11.54,-70.78,100,27.57
2025-12-11 22:16:02.010,WT901BLE67,90856446-A74E-F462-0152-8475C1E77738,1.401,-1.034,0.797,0.000,0.000,0.000,-0.472,0.786,-72.708,30.74,-11.54,-70.78,100,27.57
2025-12-11 22:16:02.015,WT901BLE67,90856446-A74E-F462-0152-8475C1E77738,1.401,-1.034,0.797,0.000,0.000,0.000,-0.472,0.786,-72.708,30.74,-11.54,-70.78,100,27.57
2025-12-11 22:16:02.020,WT901BLE67,90856446-A74E-F462-0152-8475C1E77738,1.401,-1.034,0.797,0.000,0.000,0.000,-0.472,0.786,-72.708,30.74,-11.54,-70.78,100,27.57
2025-12-11 22:16:02.025,WT901BLE67,90856446-A74E-F462-0152-8475C1E77738,1.401,-1.034,0.797,0.000,0.000,0.000,-0.472,0.786,-72.708,30.74,-11.54,-70.78,100,27.57
2025-12-11 22:16:02.028,WT901BLE67,90856446-A74E-F462-0152-8475C1E77738,1.400,-1.033,0.797,0.000,0.000,0.000,-0.472,0.786,-72.708,30.74,-11.54,-70.78,100,27.57
2025-12-11 22:16:02.028,WT901BLE67,90856446-A74E-F462-0152-8475C1E77738,1.400,-1.032,0.796,0.000,0.000,0.000,-0.472,0.786,-72.708,30.74,-11.54,-70.78,100,27.57
2025-12-11 22:16:02.030,WT901BLE67,90856446-A74E-F462-0152-8475C1E77738,1.400,-1.032,0.796,0.000,0.000,0.000,-0.472,0.786,-72.708,30.74,-11.54,-70.78,100,27.57
2025-12-11 22:16:02.035,WT901BLE67,90856446-A74E-F462-0152-8475C1E77738,1.400,-1.032,0.796,0.000,0.000,0.000,-0.472,0.786,-72.708,30.74,-11.54,-70.78,100,27.57
2025-12-11 22:16:02.040,WT901BLE67,90856446-A74E-F462-0152-8475C1E77738,1.400,-1.032,0.796,0.000,0.000,0.000,-0.472,0.786,-72.708,30.74,-11.54,-70.78,100,27.57
2025-12-11 22:16:02.047,WT901BLE67,90856446-A74E-F462-0152-8475C1E77738,1.400,-1.032,0.796,0.000,0.000,0.000,-0.472,0.786,-72.708,30.74,-11.54,-70.78,100,27.57
2025-12-11 22:16:02.050,WT901BLE67,90856446-A74E-F462-0152-8475C1E77738,1.400,-1.032,0.796,0.000,0.000,0.000,-0.472,0.786,-72.708,30.74,-11.54,-70.78,100,27.57
2025-12-11 22:16:02.055,WT901BLE67,90856446-A74E-F462-0152-8475C1E77738,1.400,-1.032,0.796,0.000,0.000,0.000,-0.472,0.786,-72.708,30.74,-11.54,-70.78,100,27.57
2025-12-11 22:16:02.061,WT901BLE67,90856446-A74E-F462-0152-8475C1E77738,1.400,-1.032,0.796,0.000,0.000,0.000,-0.472,0.786,-72.708,30.74,-11.54,-70.78,100,27.57
2025-12-11 22:16:02.065,WT901BLE67,90856446-A74E-F462-0152-8475C1E77738,1.400,-1.032,0.796,0.000,0.000,0.000,-0.472,0.786,-72.708,30.74,-11.54,-70.78,100,27.57
2025-12-11 22:16:02.070,WT901BLE67,90856446-A74E-F462-0152-8475C1E77738,1.400,-1.032,0.796,0.000,0.000,0.000,-0.472,0.786,-72.708,30.74,-11.54,-70.78,100,27.57
2025-12-11 22:16:02.075,WT901BLE67,90856446-A74E-F462-0152-8475C1E77738,1.400,-1.032,0.796,0.000,0.000,0.000,-0.472,0.786,-72.708,30.74,-11.54,-70.78,100,27.57
2025-12-11 22:16:02.080,WT901BLE67,90856446-A74E-F462-0152-8475C1E77738,1.400,-1.032,0.796,0.000,0.000,0.000,-0.472,0.786,-72.708,30.74,-11.54,-70.78,100,27.57
2025-12-11 22:16:02.085,WT901BLE67,90856446-A74E-F462-0152-8475C1E77738,1.400,-1.032,0.796,0.000,0.000,0.000,-0.472,0.786,-72.708,30.74,-11.54,-70.78,100,27.57
2025-12-11 22:16:02.088,WT901BLE67,90856446-A74E-F462-0152-8475C1E77738,1.400,-1.035,0.795,0.000,0.000,0.000,-0.472,0.786,-72.708,30.74,-11.54,-70.78,100,27.57
2025-12-11 22:16:02.088,WT901BLE67,90856446-A74E-F462-0152-8475C1E77738,1.401,-1.033,0.795,0.000,0.000,0.000,-0.472,0.786,-72.708,30.74,-11.54,-70.78,100,27.57
2025-12-11 22:16:02.090,WT901BLE67,90856446-A74E-F462-0152-8475C1E77738,1.401,-1.033,0.795,0.000,0.000,0.000,-0.472,0.786,-72.708,30.74,-11.54,-70.78,100,27.57
2025-12-11 22:16:02.097,WT901BLE67,90856446-A74E-F462-0152-8475C1E77738,1.401,-1.033,0.795,0.000,0.000,0.000,-0.472,0.786,-72.708,30.74,-11.54,-70.78,100,27.57
2025-12-11 22:16:02.100,WT901BLE67,90856446-A74E-F462-0152-8475C1E77738,1.401,-1.033,0.795,0.000,0.000,0.000,-0.472,0.786,-72.708,30.74,-11.54,-70.78,100,27.57
2025-12-11 22:16:02.105,WT901BLE67,90856446-A74E-F462-0152-8475C1E77738,1.401,-1.033,0.795,0.000,0.000,0.000,-0.472,0.786,-72.708,30.74,-11.54,-70.78,100,27.57
2025-12-11 22:16:02.110,WT901BLE67,90856446-A74E-F462-0152-8475C1E77738,1.401,-1.033,0.795,0.000,0.000,0.000,-0.472,0.786,-72.708,30.74,-11.54,-70.78,100,27.57
2025-12-11 22:16:02.115,WT901BLE67,90856446-A74E-F462-0152-8475C1E77738,1.401,-1.033,0.795,0.000,0.000,0.000,-0.472,0.786,-72.708,30.74,-11.54,-70.78,100,27.57
2025-12-11 22:16:02.118,WT901BLE67,90856446-A74E-F462-0152-8475C1E77738,1.401,-1.033,0.795,0.000,0.000,0.000,-0.472,0.786,-72.708,30.74,-11.54,-70.78,100,27.57
2025-12-11 22:16:02.118,WT901BLE67,90856446-A74E-F462-0152-8475C1E77738,1.400,-1.035,0.795,0.000,0.000,0.000,-0.472,0.786,-72.708,30.74,-11.54,-70.78,100,27.57
2025-12-11 22:16:02.121,WT901BLE67,90856446-A74E-F462-0152-8475C1E77738,1.400,-1.035,0.795,0.000,0.000,0.000,-0.472,0.786,-72.708,30.74,-11.54,-70.78,100,27.57
2025-12-11 22:16:02.125,WT901BLE67,90856446-A74E-F462-0152-8475C1E77738,1.400,-1.035,0.795,0.000,0.000,0.000,-0.472,0.786,-72.708,30.74,-11.54,-70.78,100,27.57
2025-12-11 22:16:02.130,WT901BLE67,90856446-A74E-F462-0152-8475C1E77738,1.400,-1.035,0.795,0.000,0.000,0.000,-0.472,0.786,-72.708,30.74,-11.54,-70.78,100,27.57
2025-12-11 22:16:02.135,WT901BLE67,90856446-A74E-F462-0152-8475C1E77738,1.400,-1.035,0.795,0.000,0.000,0.000,-0.472,0.786,-72.708,30.74,-11.54,-70.78,100,27.57
2025-12-11 22:16:02.140,WT901BLE67,90856446-A74E-F462-0152-8475C1E77738,1.400,-1.035,0.795,0.000,0.000,0.000,-0.472,0.786,-72.708,30.74,-11.54,-70.78,100,27.57
2025-12-11 22:16:02.147,WT901BLE67,90856446-A74E-F462-0152-8475C1E77738,1.400,-1.035,0.795,0.000,0.000,0.000,-0.472,0.786,-72.708,30.74,-11.54,-70.78,100,27.57
2025-12-11 22:16:02.149,WT901BLE67,90856446-A74E-F462-0152-8475C1E77738,1.400,-1.034,0.796,0.000,0.000,0.000,-0.472,0.786,-72.708,30.74,-11.54,-70.78,100,27.57
2025-12-11 22:16:02.149,WT901BLE67,90856446-A74E-F462-0152-8475C1E77738,1.401,-1.033,0.796,0.000,0.000,0.000,-0.472,0.786,-72.708,30.74,-11.54,-70.78,100,27.57
2025-12-11 22:16:02.150,WT901BLE67,90856446-A74E-F462-0152-8475C1E77738,1.401,-1.033,0.796,0.000,0.000,0.000,-0.472,0.786,-72.708,30.74,-11.54,-70.78,100,27.57
2025-12-11 22:16:02.155,WT901BLE67,90856446-A74E-F462-0152-8475C1E77738,1.401,-1.033,0.796,0.000,0.000,0.000,-0.472,0.786,-72.708,30.74,-11.54,-70.78,100,27.57
2025-12-11 22:16:02.161,WT901BLE67,90856446-A74E-F462-0152-8475C1E77738,1.401,-1.033,0.796,0.000,0.000,0.000,-0.472,0.786,-72.708,30.74,-11.54,-70.78,100,27.57
2025-12-11 22:16:02.165,WT901BLE67,90856446-A74E-F462-0152-8475C1E77738,1.401,-1.033,0.796,0.000,0.000,0.000,-0.472,0.786,-72.708,30.74,-11.54,-70.78,100,27.57
2025-12-11 22:16:02.170,WT901BLE67,90856446-A74E-F462-0152-8475C1E77738,1.401,-1.033,0.796,0.000,0.000,0.000,-0.472,0.786,-72.708,30.74,-11.54,-70.78,100,27.57
2025-12-11 22:16:02.175,WT901BLE67,90856446-A74E-F462-0152-8475C1E77738,1.401,-1.033,0.796,0.000,0.000,0.000,-0.472,0.786,-72.708,30.74,-11.54,-70.78,100,27.57
2025-12-11 22:16:02.180,WT901BLE67,90856446-A74E-F462-0152-8475C1E77738,1.401,-1.033,0.796,0.000,0.000,0.000,-0.472,0.786,-72.708,30.74,-11.54,-70.78,100,27.57
2025-12-11 22:16:02.185,WT901BLE67,90856446-A74E-F462-0152-8475C1E77738,1.401,-1.033,0.796,0.000,0.000,0.000,-0.472,0.786,-72.708,30.74,-11.54,-70.78,100,27.57
2025-12-11 22:16:02.190,WT901BLE67,90856446-A74E-F462-0152-8475C1E77738,1.401,-1.033,0.796,0.000,0.000,0.000,-0.472,0.786,-72.708,30.74,-11.54,-70.78,100,27.57
2025-12-11 22:16:02.197,WT901BLE67,90856446-A74E-F462-0152-8475C1E77738,1.401,-1.033,0.796,0.000,0.000,0.000,-0.472,0.786,-72.708,30.74,-11.54,-70.78,100,27.57
2025-12-11 22:16:02.200,WT901BLE67,90856446-A74E-F462-0152-8475C1E77738,1.401,-1.033,0.796,0.000,0.000,0.000,-0.472,0.786,-72.708,30.74,-11.54,-70.78,100,27.57
2025-12-11 22:16:02.205,WT901BLE67,90856446-A74E-F462-0152-8475C1E77738,1.401,-1.033,0.796,0.000,0.000,0.000,-0.472,0.786,-72.708,30.74,-11.54,-70.78,100,27.57
2025-12-11 22:16:02.208,WT901BLE67,90856446-A74E-F462-0152-8475C1E77738,1.400,-1.034,0.797,0.000,0.000,0.000,-0.472,0.786,-72.708,30.74,-11.54,-70.78,100,27.57
2025-12-11 22:16:02.208,WT901BLE67,90856446-A74E-F462-0152-8475C1E77738,1.399,-1.034,0.795,0.000,0.000,0.000,-0.472,0.786,-72.708,30.74,-11.54,-70.78,100,27.57
2025-12-11 22:16:02.210,WT901BLE67,90856446-A74E-F462-0152-8475C1E77738,1.399,-1.034,0.795,0.000,0.000,0.000,-0.472,0.786,-72.708,30.74,-11.54,-70.78,100,27.57
2025-12-11 22:16:02.215,WT901BLE67,90856446-A74E-F462-0152-8475C1E77738,1.399,-1.034,0.795,0.000,0.000,0.000,-0.472,0.786,-72.708,30.74,-11.54,-70.78,100,27.57
2025-12-11 22:16:02.220,WT901BLE67,90856446-A74E-F462-0152-8475C1E77738,1.399,-1.034,0.795,0.000,0.000,0.000,-0.472,0.786,-72.708,30.74,-11.54,-70.78,100,27.57
2025-12-11 22:16:02.225,WT901BLE67,90856446-A74E-F462-0152-8475C1E77738,1.399,-1.034,0.795,0.000,0.000,0.000,-0.472,0.786,-72.708,30.74,-11.54,-70.78,100,27.57
2025-12-11 22:16:02.230,WT901BLE67,90856446-A74E-F462-0152-8475C1E77738,1.399,-1.034,0.795,0.000,0.000,0.000,-0.472,0.786,-72.708,30.74,-11.54,-70.78,100,27.57
2025-12-11 22:16:02.235,WT901BLE67,90856446-A74E-F462-0152-8475C1E77738,1.399,-1.034,0.795,0.000,0.000,0.000,-0.472,0.786,-72.708,30.74,-11.54,-70.78,100,27.57
2025-12-11 22:16:02.238,WT901BLE67,90856446-A74E-F462-0152-8475C1E77738,1.401,-1.033,0.796,0.000,0.000,0.000,-0.472,0.786,-72.708,30.74,-11.54,-70.78,100,27.57
2025-12-11 22:16:02.238,WT901BLE67,90856446-A74E-F462-0152-8475C1E77738,1.401,-1.033,0.794,0.000,0.000,0.000,-0.472,0.786,-72.708,30.74,-11.54,-70.78,100,27.57
2025-12-11 22:16:02.240,WT901BLE67,90856446-A74E-F462-0152-8475C1E77738,1.401,-1.033,0.794,0.000,0.000,0.000,-0.472,0.786,-72.708,30.74,-11.54,-70.78,100,27.57
2025-12-11 22:16:02.247,WT901BLE67,90856446-A74E-F462-0152-8475C1E77738,1.401,-1.033,0.794,0.000,0.000,0.000,-0.472,0.786,-72.708,30.74,-11.54,-70.78,100,27.57
2025-12-11 22:16:02.250,WT901BLE67,90856446-A74E-F462-0152-8475C1E77738,1.401,-1.033,0.794,0.000,0.000,0.000,-0.472,0.786,-72.708,30.74,-11.54,-70.78,100,27.57
2025-12-11 22:16:02.255,WT901BLE67,90856446-A74E-F462-0152-8475C1E77738,1.401,-1.033,0.794,0.000,0.000,0.000,-0.472,0.786,-72.708,30.74,-11.54,-70.78,100,27.57
2025-12-11 22:16:02.261,WT901BLE67,90856446-A74E-F462-0152-8475C1E77738,1.401,-1.033,0.794,0.000,0.000,0.000,-0.472,0.786,-72.708,30.74,-11.54,-70.78,100,27.57
2025-12-11 22:16:02.265,WT901BLE67,90856446-A74E-F462-0152-8475C1E77738,1.401,-1.033,0.794,0.000,0.000,0.000,-0.472,0.786,-72.708,30.74,-11.54,-70.78,100,27.57
2025-12-11 22:16:02.268,WT901BLE67,90856446-A74E-F462-0152-8475C1E77738,1.401,-1.033,0.795,0.000,0.000,0.000,-0.472,0.786,-72.708,30.74,-11.54,-70.78,100,27.57
2025-12-11 22:16:02.268,WT901BLE67,90856446-A74E-F462-0152-8475C1E77738,1.398,-1.035,0.795,0.000,0.000,0.000,-0.472,0.786,-72.708,30.74,-11.54,-70.78,100,27.57
2025-12-11 22:16:02.270,WT901BLE67,90856446-A74E-F462-0152-8475C1E77738,1.398,-1.035,0.795,0.000,0.000,0.000,-0.472,0.786,-72.708,30.74,-11.54,-70.78,100,27.57
2025-12-11 22:16:02.275,WT901BLE67,90856446-A74E-F462-0152-8475C1E77738,1.398,-1.035,0.795,0.000,0.000,0.000,-0.472,0.786,-72.708,30.74,-11.54,-70.78,100,27.57
2025-12-11 22:16:02.280,WT901BLE67,90856446-A74E-F462-0152-8475C1E77738,1.398,-1.035,0.795,0.000,0.000,0.000,-0.472,0.786,-72.708,30.74,-11.54,-70.78,100,27.57
2025-12-11 22:16:02.285,WT901BLE67,90856446-A74E-F462-0152-8475C1E77738,1.398,-1.035,0.795,0.000,0.000,0.000,-0.472,0.786,-72.708,30.74,-11.54,-70.78,100,27.57
2025-12-11 22:16:02.290,WT901BLE67,90856446-A74E-F462-0152-8475C1E77738,1.398,-1.035,0.795,0.000,0.000,0.000,-0.472,0.786,-72.708,30.74,-11.54,-70.78,100,27.57
2025-12-11 22:16:02.297,WT901BLE67,90856446-A74E-F462-0152-8475C1E77738,1.398,-1.035,0.795,0.000,0.000,0.000,-0.472,0.786,-72.708,30.74,-11.54,-70.78,100,27.57
2025-12-11 22:16:02.300,WT901BLE67,90856446-A74E-F462-0152-8475C1E77738,1.398,-1.035,0.795,0.000,0.000,0.000,-0.472,0.786,-72.708,30.74,-11.54,-70.78,100,27.57
2025-12-11 22:16:02.305,WT901BLE67,90856446-A74E-F462-0152-8475C1E77738,1.398,-1.035,0.795,0.000,0.000,0.000,-0.472,0.786,-72.708,30.74,-11.54,-70.78,100,27.57
2025-12-11 22:16:02.311,WT901BLE67,90856446-A74E-F462-0152-8475C1E77738,1.398,-1.035,0.795,0.000,0.000,0.000,-0.472,0.786,-72.708,30.74,-11.54,-70.78,100,27.57
2025-12-11 22:16:02.315,WT901BLE67,90856446-A74E-F462-0152-8475C1E77738,1.398,-1.035,0.795,0.000,0.000,0.000,-0.472,0.786,-72.708,30.74,-11.54,-70.78,100,27.57
2025-12-11 22:16:02.320,WT901BLE67,90856446-A74E-F462-0152-8475C1E77738,1.398,-1.035,0.795,0.000,0.000,0.000,-0.472,0.786,-72.708,30.74,-11.54,-70.78,100,27.57
2025-12-11 22:16:02.325,WT901BLE67,90856446-A74E-F462-0152-8475C1E77738,1.398,-1.035,0.795,0.000,0.000,0.000,-0.472,0.786,-72.708,30.74,-11.54,-70.78,100,27.57
2025-12-11 22:16:02.330,WT901BLE67,90856446-A74E-F462-0152-8475C1E77738,1.400,-1.033,0.795,0.000,0.000,0.000,-0.472,0.786,-72.708,30.74,-11.54,-70.78,100,27.57
2025-12-11 22:16:02.330,WT901BLE67,90856446-A74E-F462-0152-8475C1E77738,1.401,-1.034,0.795,0.000,0.000,0.000,-0.472,0.786,-72.708,30.74,-11.54,-70.78,100,27.57
2025-12-11 22:16:02.330,WT901BLE67,90856446-A74E-F462-0152-8475C1E77738,1.401,-1.034,0.795,0.000,0.000,0.000,-0.472,0.786,-72.708,30.74,-11.54,-70.78,100,27.57
2025-12-11 22:16:02.335,WT901BLE67,90856446-A74E-F462-0152-8475C1E77738,1.401,-1.034,0.795,0.000,0.000,0.000,-0.472,0.786,-72.708,30.74,-11.54,-70.78,100,27.57
2025-12-11 22:16:02.340,WT901BLE67,90856446-A74E-F462-0152-8475C1E77738,1.401,-1.034,0.795,0.000,0.000,0.000,-0.472,0.786,-72.708,30.74,-11.54,-70.78,100,27.57
2025-12-11 22:16:02.347,WT901BLE67,90856446-A74E-F462-0152-8475C1E77738,1.401,-1.034,0.795,0.000,0.000,0.000,-0.472,0.786,-72.708,30.74,-11.54,-70.78,100,27.57
2025-12-11 22:16:02.350,WT901BLE67,90856446-A74E-F462-0152-8475C1E77738,1.401,-1.034,0.795,0.000,0.000,0.000,-0.472,0.786,-72.708,30.74,-11.54,-70.78,100,27.57
2025-12-11 22:16:02.355,WT901BLE67,90856446-A74E-F462-0152-8475C1E77738,1.401,-1.034,0.795,0.000,0.000,0.000,-0.472,0.786,-72.708,30.74,-11.54,-70.78,100,27.57
2025-12-11 22:16:02.360,WT901BLE67,90856446-A74E-F462-0152-8475C1E77738,1.401,-1.031,0.795,0.000,0.000,0.000,-0.472,0.786,-72.708,30.74,-11.54,-70.78,100,27.57
2025-12-11 22:16:02.360,WT901BLE67,90856446-A74E-F462-0152-8475C1E77738,1.400,-1.035,0.796,0.000,0.000,0.000,-0.472,0.786,-72.708,30.74,-11.54,-70.78,100,27.57
2025-12-11 22:16:02.360,WT901BLE67,90856446-A74E-F462-0152-8475C1E77738,1.400,-1.035,0.796,0.000,0.000,0.000,-0.472,0.786,-72.708,30.74,-11.54,-70.78,100,27.57
2025-12-11 22:16:02.365,WT901BLE67,90856446-A74E-F462-0152-8475C1E77738,1.400,-1.035,0.796,0.000,0.000,0.000,-0.472,0.786,-72.708,30.74,-11.54,-70.78,100,27.57
2025-12-11 22:16:02.370,WT901BLE67,90856446-A74E-F462-0152-8475C1E77738,1.400,-1.035,0.796,0.000,0.000,0.000,-0.472,0.786,-72.708,30.74,-11.54,-70.78,100,27.57
2025-12-11 22:16:02.375,WT901BLE67,90856446-A74E-F462-0152-8475C1E77738,1.400,-1.035,0.796,0.000,0.000,0.000,-0.472,0.786,-72.708,30.74,-11.54,-70.78,100,27.57
2025-12-11 22:16:02.380,WT901BLE67,90856446-A74E-F462-0152-8475C1E77738,1.400,-1.035,0.796,0.000,0.000,0.000,-0.472,0.786,-72.708,30.74,-11.54,-70.78,100,27.57
2025-12-11 22:16:02.385,WT901BLE67,90856446-A74E-F462-0152-8475C1E77738,1.400,-1.035,0.796,0.000,0.000,0.000,-0.472,0.786,-72.708,30.74,-11.54,-70.78,100,27.57
2025-12-11 22:16:02.390,WT901BLE67,90856446-A74E-F462-0152-8475C1E77738,1.401,-1.035,0.795,0.000,0.000,0.000,-0.472,0.786,-72.708,30.74,-11.54,-70.78,100,27.57
2025-12-11 22:16:02.390,WT901BLE67,90856446-A74E-F462-0152-8475C1E77738,1.401,-1.033,0.795,0.000,0.000,0.000,-0.472,0.786,-72.708,30.74,-11.54,-70.78,100,27.57
2025-12-11 22:16:02.390,WT901BLE67,90856446-A74E-F462-0152-8475C1E77738,1.401,-1.033,0.795,0.000,0.000,0.000,-0.472,0.786,-72.708,30.74,-11.54,-70.78,100,27.57
2025-12-11 22:16:02.397,WT901BLE67,90856446-A74E-F462-0152-8475C1E77738,1.401,-1.033,0.795,0.000,0.000,0.000,-0.472,0.786,-72.708,30.74,-11.54,-70.78,100,27.57
2025-12-11 22:16:02.400,WT901BLE67,90856446-A74E-F462-0152-8475C1E77738,1.401,-1.033,0.795,0.000,0.000,0.000,-0.472,0.786,-72.708,30.74,-11.54,-70.78,100,27.57
2025-12-11 22:16:02.405,WT901BLE67,90856446-A74E-F462-0152-8475C1E77738,1.401,-1.033,0.795,0.000,0.000,0.000,-0.472,0.786,-72.708,30.74,-11.54,-70.78,100,27.57
2025-12-11 22:16:02.410,WT901BLE67,90856446-A74E-F462-0152-8475C1E77738,1.401,-1.033,0.795,0.000,0.000,0.000,-0.472,0.786,-72.708,30.74,-11.54,-70.78,100,27.57
2025-12-11 22:16:02.415,WT901BLE67,90856446-A74E-F462-0152-8475C1E77738,1.401,-1.033,0.795,0.000,0.000,0.000,-0.472,0.786,-72.708,30.74,-11.54,-70.78,100,27.57
2025-12-11 22:16:02.420,WT901BLE67,90856446-A74E-F462-0152-8475C1E77738,1.401,-1.033,0.795,0.000,0.000,0.000,-0.472,0.786,-72.708,30.74,-11.54,-70.78,100,27.57
2025-12-11 22:16:02.425,WT901BLE67,90856446-A74E-F462-0152-8475C1E77738,1.401,-1.033,0.795,0.000,0.000,0.000,-0.472,0.786,-72.708,30.74,-11.54,-70.78,100,27.57
2025-12-11 22:16:02.430,WT901BLE67,90856446-A74E-F462-0152-8475C1E77738,1.401,-1.033,0.795,0.000,0.000,0.000,-0.472,0.786,-72.708,30.74,-11.54,-70.78,100,27.57
2025-12-11 22:16:02.435,WT901BLE67,90856446-A74E-F462-0152-8475C1E77738,1.401,-1.033,0.795,0.000,0.000,0.000,-0.472,0.786,-72.708,30.74,-11.54,-70.78,100,27.57
2025-12-11 22:16:02.440,WT901BLE67,90856446-A74E-F462-0152-8475C1E77738,1.401,-1.033,0.795,0.000,0.000,0.000,-0.472,0.786,-72.708,30.74,-11.54,-70.78,100,27.57
2025-12-11 22:16:02.447,WT901BLE67,90856446-A74E-F462-0152-8475C1E77738,1.401,-1.033,0.795,0.000,0.000,0.000,-0.472,0.786,-72.708,30.74,-11.54,-70.78,100,27.57
2025-12-11 22:16:02.449,WT901BLE67,90856446-A74E-F462-0152-8475C1E77738,1.398,-1.032,0.795,0.000,0.000,0.000,-0.472,0.786,-72.708,30.74,-11.54,-70.78,100,27.57
2025-12-11 22:16:02.449,WT901BLE67,90856446-A74E-F462-0152-8475C1E77738,1.401,-1.034,0.797,0.000,0.000,0.000,-0.472,0.786,-72.708,30.74,-11.54,-70.78,100,27.57
2025-12-11 22:16:02.450,WT901BLE67,90856446-A74E-F462-0152-8475C1E77738,1.401,-1.034,0.797,0.000,0.000,0.000,-0.472,0.786,-72.708,30.74,-11.54,-70.78,100,27.57
2025-12-11 22:16:02.455,WT901BLE67,90856446-A74E-F462-0152-8475C1E77738,1.401,-1.034,0.797,0.000,0.000,0.000,-0.472,0.786,-72.708,30.74,-11.54,-70.78,100,27.57
2025-12-11 22:16:02.461,WT901BLE67,90856446-A74E-F462-0152-8475C1E77738,1.401,-1.034,0.797,0.000,0.000,0.000,-0.472,0.786,-72.708,30.74,-11.54,-70.78,100,27.57
2025-12-11 22:16:02.465,WT901BLE67,90856446-A74E-F462-0152-8475C1E77738,1.401,-1.034,0.797,0.000,0.000,0.000,-0.472,0.786,-72.708,30.74,-11.54,-70.78,100,27.57
2025-12-11 22:16:02.470,WT901BLE67,90856446-A74E-F462-0152-8475C1E77738,1.401,-1.034,0.797,0.000,0.000,0.000,-0.472,0.786,-72.708,30.74,-11.54,-70.78,100,27.57
2025-12-11 22:16:02.475,WT901BLE67,90856446-A74E-F462-0152-8475C1E77738,1.401,-1.034,0.797,0.000,0.000,0.000,-0.472,0.786,-72.708,30.74,-11.54,-70.78,100,27.57
2025-12-11 22:16:02.477,WT901BLE67,90856446-A74E-F462-0152-8475C1E77738,1.400,-1.035,0.796,0.000,0.000,0.000,-0.472,0.786,-72.708,30.74,-11.54,-70.78,100,27.57
2025-12-11 22:16:02.478,WT901BLE67,90856446-A74E-F462-0152-8475C1E77738,1.401,-1.033,0.796,0.000,0.000,0.000,-0.472,0.786,-72.708,30.74,-11.54,-70.78,100,27.57
2025-12-11 22:16:02.480,WT901BLE67,90856446-A74E-F462-0152-8475C1E77738,1.401,-1.033,0.796,0.000,0.000,0.000,-0.472,0.786,-72.708,30.74,-11.54,-70.78,100,27.57
2025-12-11 22:16:02.485,WT901BLE67,90856446-A74E-F462-0152-8475C1E77738,1.401,-1.033,0.796,0.000,0.000,0.000,-0.472,0.786,-72.708,30.74,-11.54,-70.78,100,27.57
2025-12-11 22:16:02.490,WT901BLE67,90856446-A74E-F462-0152-8475C1E77738,1.401,-1.033,0.796,0.000,0.000,0.000,-0.472,0.786,-72.708,30.74,-11.54,-70.78,100,27.57
2025-12-11 22:16:02.497,WT901BLE67,90856446-A74E-F462-0152-8475C1E77738,1.401,-1.033,0.796,0.000,0.000,0.000,-0.472,0.786,-72.708,30.74,-11.54,-70.78,100,27.57
2025-12-11 22:16:02.500,WT901BLE67,90856446-A74E-F462-0152-8475C1E77738,1.401,-1.033,0.796,0.000,0.000,0.000,-0.472,0.786,-72.708,30.74,-11.54,-70.78,100,27.57
2025-12-11 22:16:02.505,WT901BLE67,90856446-A74E-F462-0152-8475C1E77738,1.401,-1.033,0.796,0.000,0.000,0.000,-0.472,0.786,-72.708,30.74,-11.54,-70.78,100,27.57
2025-12-11 22:16:02.509,WT901BLE67,90856446-A74E-F462-0152-8475C1E77738,1.399,-1.033,0.795,0.000,0.000,0.000,-0.472,0.786,-72.708,30.74,-11.54,-70.78,100,27.57
2025-12-11 22:16:02.509,WT901BLE67,90856446-A74E-F462-0152-8475C1E77738,1.400,-1.032,0.795,0.000,0.000,0.000,-0.472,0.786,-72.708,30.74,-11.54,-70.78,100,27.57
2025-12-11 22:16:02.510,WT901BLE67,90856446-A74E-F462-0152-8475C1E77738,1.400,-1.032,0.795,0.000,0.000,0.000,-0.472,0.786,-72.708,30.74,-11.54,-70.78,100,27.57
2025-12-11 22:16:02.515,WT901BLE67,90856446-A74E-F462-0152-8475C1E77738,1.400,-1.032,0.795,0.000,0.000,0.000,-0.472,0.786,-72.708,30.74,-11.54,-70.78,100,27.57
2025-12-11 22:16:02.520,WT901BLE67,90856446-A74E-F462-0152-8475C1E77738,1.400,-1.032,0.795,0.000,0.000,0.000,-0.472,0.786,-72.708,30.74,-11.54,-70.78,100,27.57
2025-12-11 22:16:02.525,WT901BLE67,90856446-A74E-F462-0152-8475C1E77738,1.400,-1.032,0.795,0.000,0.000,0.000,-0.472,0.786,-72.708,30.74,-11.54,-70.78,100,27.57
2025-12-11 22:16:02.530,WT901BLE67,90856446-A74E-F462-0152-8475C1E77738,1.400,-1.032,0.795,0.000,0.000,0.000,-0.472,0.786,-72.708,30.74,-11.54,-70.78,100,27.57
2025-12-11 22:16:02.535,WT901BLE67,90856446-A74E-F462-0152-8475C1E77738,1.400,-1.032,0.795,0.000,0.000,0.000,-0.472,0.786,-72.708,30.74,-11.54,-70.78,100,27.57
2025-12-11 22:16:02.540,WT901BLE67,90856446-A74E-F462-0152-8475C1E77738,1.400,-1.032,0.795,0.000,0.000,0.000,-0.472,0.786,-72.708,30.74,-11.54,-70.78,100,27.57
2025-12-11 22:16:02.547,WT901BLE67,90856446-A74E-F462-0152-8475C1E77738,1.400,-1.032,0.795,0.000,0.000,0.000,-0.472,0.786,-72.708,30.74,-11.54,-70.78,100,27.57
2025-12-11 22:16:02.550,WT901BLE67,90856446-A74E-F462-0152-8475C1E77738,1.400,-1.032,0.795,0.000,0.000,0.000,-0.472,0.786,-72.708,30.74,-11.54,-70.78,100,27.57
2025-12-11 22:16:02.555,WT901BLE67,90856446-A74E-F462-0152-8475C1E77738,1.400,-1.032,0.795,0.000,0.000,0.000,-0.472,0.786,-72.708,30.74,-11.54,-70.78,100,27.57
2025-12-11 22:16:02.560,WT901BLE67,90856446-A74E-F462-0152-8475C1E77738,1.400,-1.032,0.795,0.000,0.000,0.000,-0.472,0.786,-72.708,30.74,-11.54,-70.78,100,27.57
2025-12-11 22:16:02.565,WT901BLE67,90856446-A74E-F462-0152-8475C1E77738,1.400,-1.032,0.795,0.000,0.000,0.000,-0.472,0.786,-72.708,30.74,-11.54,-70.78,100,27.57
2025-12-11 22:16:02.570,WT901BLE67,90856446-A74E-F462-0152-8475C1E77738,1.400,-1.033,0.796,0.000,0.000,0.000,-0.472,0.786,-72.708,30.74,-11.54,-70.78,100,27.57
2025-12-11 22:16:02.570,WT901BLE67,90856446-A74E-F462-0152-8475C1E77738,1.400,-1.032,0.795,0.000,0.000,0.000,-0.472,0.786,-72.708,30.74,-11.54,-70.78,100,27.57
2025-12-11 22:16:02.570,WT901BLE67,90856446-A74E-F462-0152-8475C1E77738,1.400,-1.032,0.795,0.000,0.000,0.000,-0.472,0.786,-72.708,30.74,-11.54,-70.78,100,27.57
2025-12-11 22:16:02.575,WT901BLE67,90856446-A74E-F462-0152-8475C1E77738,1.400,-1.032,0.795,0.000,0.000,0.000,-0.472,0.786,-72.708,30.74,-11.54,-70.78,100,27.57
2025-12-11 22:16:02.580,WT901BLE67,90856446-A74E-F462-0152-8475C1E77738,1.400,-1.032,0.795,0.000,0.000,0.000,-0.472,0.786,-72.708,30.74,-11.54,-70.78,100,27.57
2025-12-11 22:16:02.585,WT901BLE67,90856446-A74E-F462-0152-8475C1E77738,1.400,-1.032,0.795,0.000,0.000,0.000,-0.472,0.786,-72.708,30.74,-11.54,-70.78,100,27.57
2025-12-11 22:16:02.590,WT901BLE67,90856446-A74E-F462-0152-8475C1E77738,1.400,-1.032,0.795,0.000,0.000,0.000,-0.472,0.786,-72.708,30.74,-11.54,-70.78,100,27.57
2025-12-11 22:16:02.597,WT901BLE67,90856446-A74E-F462-0152-8475C1E77738,1.400,-1.032,0.795,0.000,0.000,0.000,-0.472,0.786,-72.708,30.74,-11.54,-70.78,100,27.57
2025-12-11 22:16:02.600,WT901BLE67,90856446-A74E-F462-0152-8475C1E77738,1.400,-1.032,0.795,0.000,0.000,0.000,-0.472,0.786,-72.708,30.74,-11.54,-70.78,100,27.57
2025-12-11 22:16:02.602,WT901BLE67,90856446-A74E-F462-0152-8475C1E77738,1.401,-1.036,0.795,0.000,0.000,0.000,-0.472,0.786,-72.708,30.74,-11.54,-70.78,100,27.57
2025-12-11 22:16:02.602,WT901BLE67,90856446-A74E-F462-0152-8475C1E77738,1.399,-1.033,0.796,0.000,0.000,0.000,-0.472,0.786,-72.708,30.74,-11.54,-70.78,100,27.57
2025-12-11 22:16:02.605,WT901BLE67,90856446-A74E-F462-0152-8475C1E77738,1.399,-1.033,0.796,0.000,0.000,0.000,-0.472,0.786,-72.708,30.74,-11.54,-70.78,100,27.57
2025-12-11 22:16:02.611,WT901BLE67,90856446-A74E-F462-0152-8475C1E77738,1.399,-1.033,0.796,0.000,0.000,0.000,-0.472,0.786,-72.708,30.74,-11.54,-70.78,100,27.57
2025-12-11 22:16:02.615,WT901BLE67,90856446-A74E-F462-0152-8475C1E77738,1.399,-1.033,0.796,0.000,0.000,0.000,-0.472,0.786,-72.708,30.74,-11.54,-70.78,100,27.57
2025-12-11 22:16:02.621,WT901BLE67,90856446-A74E-F462-0152-8475C1E77738,1.399,-1.033,0.796,0.000,0.000,0.000,-0.472,0.786,-72.708,30.74,-11.54,-70.78,100,27.57
2025-12-11 22:16:02.625,WT901BLE67,90856446-A74E-F462-0152-8475C1E77738,1.399,-1.033,0.796,0.000,0.000,0.000,-0.472,0.786,-72.708,30.74,-11.54,-70.78,100,27.57
2025-12-11 22:16:02.630,WT901BLE67,90856446-A74E-F462-0152-8475C1E77738,1.401,-1.033,0.795,0.000,0.000,0.000,-0.472,0.786,-72.708,30.74,-11.54,-70.78,100,27.57
2025-12-11 22:16:02.630,WT901BLE67,90856446-A74E-F462-0152-8475C1E77738,1.401,-1.033,0.796,0.000,0.000,0.000,-0.472,0.786,-72.708,30.74,-11.54,-70.78,100,27.57
2025-12-11 22:16:02.630,WT901BLE67,90856446-A74E-F462-0152-8475C1E77738,1.401,-1.033,0.796,0.000,0.000,0.000,-0.472,0.786,-72.708,30.74,-11.54,-70.78,100,27.57
2025-12-11 22:16:02.635,WT901BLE67,90856446-A74E-F462-0152-8475C1E77738,1.401,-1.033,0.796,0.000,0.000,0.000,-0.472,0.786,-72.708,30.74,-11.54,-70.78,100,27.57
2025-12-11 22:16:02.640,WT901BLE67,90856446-A74E-F462-0152-8475C1E77738,1.401,-1.033,0.796,0.000,0.000,0.000,-0.472,0.786,-72.708,30.74,-11.54,-70.78,100,27.57
2025-12-11 22:16:02.647,WT901BLE67,90856446-A74E-F462-0152-8475C1E77738,1.401,-1.033,0.796,0.000,0.000,0.000,-0.472,0.786,-72.708,30.74,-11.54,-70.78,100,27.57
2025-12-11 22:16:02.650,WT901BLE67,90856446-A74E-F462-0152-8475C1E77738,1.401,-1.033,0.796,0.000,0.000,0.000,-0.472,0.786,-72.708,30.74,-11.54,-70.78,100,27.57
2025-12-11 22:16:02.655,WT901BLE67,90856446-A74E-F462-0152-8475C1E77738,1.401,-1.033,0.796,0.000,0.000,0.000,-0.472,0.786,-72.708,30.74,-11.54,-70.78,100,27.57
2025-12-11 22:16:02.660,WT901BLE67,90856446-A74E-F462-0152-8475C1E77738,1.401,-1.033,0.796,0.000,0.000,0.000,-0.472,0.786,-72.708,30.74,-11.54,-70.78,100,27.57
2025-12-11 22:16:02.665,WT901BLE67,90856446-A74E-F462-0152-8475C1E77738,1.401,-1.033,0.796,0.000,0.000,0.000,-0.472,0.786,-72.708,30.74,-11.54,-70.78,100,27.57
2025-12-11 22:16:02.670,WT901BLE67,90856446-A74E-F462-0152-8475C1E77738,1.401,-1.033,0.796,0.000,0.000,0.000,-0.472,0.786,-72.708,30.74,-11.54,-70.78,100,27.57
2025-12-11 22:16:02.675,WT901BLE67,90856446-A74E-F462-0152-8475C1E77738,1.401,-1.033,0.796,0.000,0.000,0.000,-0.472,0.786,-72.708,30.74,-11.54,-70.78,100,27.57
2025-12-11 22:16:02.680,WT901BLE67,90856446-A74E-F462-0152-8475C1E77738,1.401,-1.033,0.796,0.000,0.000,0.000,-0.472,0.786,-72.708,30.74,-11.54,-70.78,100,27.57
2025-12-11 22:16:02.685,WT901BLE67,90856446-A74E-F462-0152-8475C1E77738,1.401,-1.033,0.796,0.000,0.000,0.000,-0.472,0.786,-72.708,30.74,-11.54,-70.78,100,27.57
2025-12-11 22:16:02.688,WT901BLE67,90856446-A74E-F462-0152-8475C1E77738,1.401,-1.035,0.796,0.000,0.000,0.000,-0.472,0.786,-72.708,30.74,-11.54,-70.78,100,27.57
2025-12-11 22:16:02.688,WT901BLE67,90856446-A74E-F462-0152-8475C1E77738,1.399,-1.036,0.795,0.000,0.000,0.000,-0.472,0.786,-72.708,30.74,-11.54,-70.78,100,27.57
2025-12-11 22:16:02.690,WT901BLE67,90856446-A74E-F462-0152-8475C1E77738,1.399,-1.036,0.795,0.000,0.000,0.000,-0.472,0.786,-72.708,30.74,-11.54,-70.78,100,27.57
2025-12-11 22:16:02.697,WT901BLE67,90856446-A74E-F462-0152-8475C1E77738,1.399,-1.036,0.795,0.000,0.000,0.000,-0.472,0.786,-72.708,30.74,-11.54,-70.78,100,27.57
2025-12-11 22:16:02.700,WT901BLE67,90856446-A74E-F462-0152-8475C1E77738,1.399,-1.036,0.795,0.000,0.000,0.000,-0.472,0.786,-72.708,30.74,-11.54,-70.78,100,27.57
2025-12-11 22:16:02.705,WT901BLE67,90856446-A74E-F462-0152-8475C1E77738,1.399,-1.036,0.795,0.000,0.000,0.000,-0.472,0.786,-72.708,30.74,-11.54,-70.78,100,27.57
2025-12-11 22:16:02.710,WT901BLE67,90856446-A74E-F462-0152-8475C1E77738,1.399,-1.036,0.795,0.000,0.000,0.000,-0.472,0.786,-72.708,30.74,-11.54,-70.78,100,27.57
2025-12-11 22:16:02.715,WT901BLE67,90856446-A74E-F462-0152-8475C1E77738,1.399,-1.036,0.795,0.000,0.000,0.000,-0.472,0.786,-72.708,30.74,-11.54,-70.78,100,27.57
2025-12-11 22:16:02.718,WT901BLE67,90856446-A74E-F462-0152-8475C1E77738,1.402,-1.033,0.795,0.000,0.000,0.000,-0.472,0.786,-72.708,30.74,-11.54,-70.78,100,27.57
2025-12-11 22:16:02.718,WT901BLE67,90856446-A74E-F462-0152-8475C1E77738,1.400,-1.032,0.795,0.000,0.000,0.000,-0.472,0.786,-72.708,30.74,-11.54,-70.78,100,27.57
2025-12-11 22:16:02.720,WT901BLE67,90856446-A74E-F462-0152-8475C1E77738,1.400,-1.032,0.795,0.000,0.000,0.000,-0.472,0.786,-72.708,30.74,-11.54,-70.78,100,27.57
2025-12-11 22:16:02.725,WT901BLE67,90856446-A74E-F462-0152-8475C1E77738,1.400,-1.032,0.795,0.000,0.000,0.000,-0.472,0.786,-72.708,30.74,-11.54,-70.78,100,27.57
2025-12-11 22:16:02.730,WT901BLE67,90856446-A74E-F462-0152-8475C1E77738,1.400,-1.032,0.795,0.000,0.000,0.000,-0.472,0.786,-72.708,30.74,-11.54,-70.78,100,27.57
2025-12-11 22:16:02.735,WT901BLE67,90856446-A74E-F462-0152-8475C1E77738,1.400,-1.032,0.795,0.000,0.000,0.000,-0.472,0.786,-72.708,30.74,-11.54,-70.78,100,27.57
2025-12-11 22:16:02.740,WT901BLE67,90856446-A74E-F462-0152-8475C1E77738,1.400,-1.032,0.795,0.000,0.000,0.000,-0.472,0.786,-72.708,30.74,-11.54,-70.78,100,27.57
2025-12-11 22:16:02.747,WT901BLE67,90856446-A74E-F462-0152-8475C1E77738,1.400,-1.032,0.795,0.000,0.000,0.000,-0.472,0.786,-72.708,30.74,-11.54,-70.78,100,27.57
2025-12-11 22:16:02.747,WT901BLE67,90856446-A74E-F462-0152-8475C1E77738,1.400,-1.033,0.794,0.000,0.000,0.000,-0.472,0.786,-72.708,30.74,-11.54,-70.78,100,27.57
2025-12-11 22:16:02.747,WT901BLE67,90856446-A74E-F462-0152-8475C1E77738,1.400,-1.032,0.794,0.000,0.000,0.000,-0.472,0.786,-72.708,30.74,-11.54,-70.78,100,27.57
2025-12-11 22:16:02.750,WT901BLE67,90856446-A74E-F462-0152-8475C1E77738,1.400,-1.032,0.794,0.000,0.000,0.000,-0.472,0.786,-72.708,30.74,-11.54,-70.78,100,27.57
2025-12-11 22:16:02.755,WT901BLE67,90856446-A74E-F462-0152-8475C1E77738,1.400,-1.032,0.794,0.000,0.000,0.000,-0.472,0.786,-72.708,30.74,-11.54,-70.78,100,27.57
2025-12-11 22:16:02.761,WT901BLE67,90856446-A74E-F462-0152-8475C1E77738,1.400,-1.032,0.794,0.000,0.000,0.000,-0.472,0.786,-72.708,30.74,-11.54,-70.78,100,27.57
2025-12-11 22:16:02.765,WT901BLE67,90856446-A74E-F462-0152-8475C1E77738,1.400,-1.032,0.794,0.000,0.000,0.000,-0.472,0.786,-72.708,30.74,-11.54,-70.78,100,27.57
2025-12-11 22:16:02.770,WT901BLE67,90856446-A74E-F462-0152-8475C1E77738,1.400,-1.032,0.794,0.000,0.000,0.000,-0.472,0.786,-72.708,30.74,-11.54,-70.78,100,27.57
2025-12-11 22:16:02.775,WT901BLE67,90856446-A74E-F462-0152-8475C1E77738,1.400,-1.032,0.794,0.000,0.000,0.000,-0.472,0.786,-72.708,30.74,-11.54,-70.78,100,27.57
2025-12-11 22:16:02.780,WT901BLE67,90856446-A74E-F462-0152-8475C1E77738,1.400,-1.032,0.794,0.000,0.000,0.000,-0.472,0.786,-72.708,30.74,-11.54,-70.78,100,27.57
2025-12-11 22:16:02.785,WT901BLE67,90856446-A74E-F462-0152-8475C1E77738,1.400,-1.032,0.794,0.000,0.000,0.000,-0.472,0.786,-72.708,30.74,-11.54,-70.78,100,27.57
2025-12-11 22:16:02.790,WT901BLE67,90856446-A74E-F462-0152-8475C1E77738,1.400,-1.032,0.794,0.000,0.000,0.000,-0.472,0.786,-72.708,30.74,-11.54,-70.78,100,27.57
2025-12-11 22:16:02.797,WT901BLE67,90856446-A74E-F462-0152-8475C1E77738,1.400,-1.032,0.794,0.000,0.000,0.000,-0.472,0.786,-72.708,30.74,-11.54,-70.78,100,27.57
2025-12-11 22:16:02.800,WT901BLE67,90856446-A74E-F462-0152-8475C1E77738,1.400,-1.032,0.794,0.000,0.000,0.000,-0.472,0.786,-72.708,30.74,-11.54,-70.78,100,27.57
2025-12-11 22:16:02.805,WT901BLE67,90856446-A74E-F462-0152-8475C1E77738,1.400,-1.032,0.794,0.000,0.000,0.000,-0.472,0.786,-72.708,30.74,-11.54,-70.78,100,27.57
2025-12-11 22:16:02.807,WT901BLE67,90856446-A74E-F462-0152-8475C1E77738,1.400,-1.031,0.794,0.000,0.000,0.000,-0.472,0.786,-72.708,30.74,-11.54,-70.78,100,27.57
2025-12-11 22:16:02.807,WT901BLE67,90856446-A74E-F462-0152-8475C1E77738,1.400,-1.034,0.797,0.000,0.000,0.000,-0.472,0.786,-72.708,30.74,-11.54,-70.78,100,27.57
2025-12-11 22:16:02.811,WT901BLE67,90856446-A74E-F462-0152-8475C1E77738,1.400,-1.034,0.797,0.000,0.000,0.000,-0.472,0.786,-72.708,30.74,-11.54,-70.78,100,27.57
2025-12-11 22:16:02.815,WT901BLE67,90856446-A74E-F462-0152-8475C1E77738,1.400,-1.034,0.797,0.000,0.000,0.000,-0.472,0.786,-72.708,30.74,-11.54,-70.78,100,27.57
2025-12-11 22:16:02.820,WT901BLE67,90856446-A74E-F462-0152-8475C1E77738,1.400,-1.034,0.797,0.000,0.000,0.000,-0.472,0.786,-72.708,30.74,-11.54,-70.78,100,27.57
2025-12-11 22:16:02.825,WT901BLE67,90856446-A74E-F462-0152-8475C1E77738,1.400,-1.034,0.797,0.000,0.000,0.000,-0.472,0.786,-72.708,30.74,-11.54,-70.78,100,27.57
2025-12-11 22:16:02.830,WT901BLE67,90856446-A74E-F462-0152-8475C1E77738,1.400,-1.034,0.797,0.000,0.000,0.000,-0.472,0.786,-72.708,30.74,-11.54,-70.78,100,27.57
2025-12-11 22:16:02.835,WT901BLE67,90856446-A74E-F462-0152-8475C1E77738,1.400,-1.034,0.797,0.000,0.000,0.000,-0.472,0.786,-72.708,30.74,-11.54,-70.78,100,27.57
2025-12-11 22:16:02.839,WT901BLE67,90856446-A74E-F462-0152-8475C1E77738,1.401,-1.033,0.794,0.000,0.000,0.000,-0.472,0.786,-72.708,30.74,-11.54,-70.78,100,27.57
2025-12-11 22:16:02.839,WT901BLE67,90856446-A74E-F462-0152-8475C1E77738,1.400,-1.033,0.795,0.000,0.000,0.000,-0.472,0.786,-72.708,30.74,-11.54,-70.78,100,27.57
2025-12-11 22:16:02.840,WT901BLE67,90856446-A74E-F462-0152-8475C1E77738,1.400,-1.033,0.795,0.000,0.000,0.000,-0.472,0.786,-72.708,30.74,-11.54,-70.78,100,27.57
2025-12-11 22:16:02.847,WT901BLE67,90856446-A74E-F462-0152-8475C1E77738,1.400,-1.033,0.795,0.000,0.000,0.000,-0.472,0.786,-72.708,30.74,-11.54,-70.78,100,27.57
2025-12-11 22:16:02.850,WT901BLE67,90856446-A74E-F462-0152-8475C1E77738,1.400,-1.033,0.795,0.000,0.000,0.000,-0.472,0.786,-72.708,30.74,-11.54,-70.78,100,27.57
2025-12-11 22:16:02.855,WT901BLE67,90856446-A74E-F462-0152-8475C1E77738,1.400,-1.033,0.795,0.000,0.000,0.000,-0.472,0.786,-72.708,30.74,-11.54,-70.78,100,27.57
2025-12-11 22:16:02.861,WT901BLE67,90856446-A74E-F462-0152-8475C1E77738,1.400,-1.033,0.795,0.000,0.000,0.000,-0.472,0.786,-72.708,30.74,-11.54,-70.78,100,27.57
2025-12-11 22:16:02.865,WT901BLE67,90856446-A74E-F462-0152-8475C1E77738,1.400,-1.033,0.795,0.000,0.000,0.000,-0.472,0.786,-72.708,30.74,-11.54,-70.78,100,27.57
2025-12-11 22:16:02.868,WT901BLE67,90856446-A74E-F462-0152-8475C1E77738,1.400,-1.034,0.794,0.000,0.000,0.000,-0.472,0.786,-72.708,30.74,-11.54,-70.78,100,27.57
2025-12-11 22:16:02.868,WT901BLE67,90856446-A74E-F462-0152-8475C1E77738,1.400,-1.035,0.795,0.000,0.000,0.000,-0.472,0.786,-72.708,30.74,-11.54,-70.78,100,27.57
2025-12-11 22:16:02.870,WT901BLE67,90856446-A74E-F462-0152-8475C1E77738,1.400,-1.035,0.795,0.000,0.000,0.000,-0.472,0.786,-72.708,30.74,-11.54,-70.78,100,27.57
2025-12-11 22:16:02.875,WT901BLE67,90856446-A74E-F462-0152-8475C1E77738,1.400,-1.035,0.795,0.000,0.000,0.000,-0.472,0.786,-72.708,30.74,-11.54,-70.78,100,27.57
2025-12-11 22:16:02.880,WT901BLE67,90856446-A74E-F462-0152-8475C1E77738,1.400,-1.035,0.795,0.000,0.000,0.000,-0.472,0.786,-72.708,30.74,-11.54,-70.78,100,27.57
2025-12-11 22:16:02.885,WT901BLE67,90856446-A74E-F462-0152-8475C1E77738,1.400,-1.035,0.795,0.000,0.000,0.000,-0.472,0.786,-72.708,30.74,-11.54,-70.78,100,27.57
2025-12-11 22:16:02.890,WT901BLE67,90856446-A74E-F462-0152-8475C1E77738,1.400,-1.035,0.795,0.000,0.000,0.000,-0.472,0.786,-72.708,30.74,-11.54,-70.78,100,27.57
2025-12-11 22:16:02.897,WT901BLE67,90856446-A74E-F462-0152-8475C1E77738,1.400,-1.035,0.795,0.000,0.000,0.000,-0.472,0.786,-72.708,30.74,-11.54,-70.78,100,27.57
2025-12-11 22:16:02.900,WT901BLE67,90856446-A74E-F462-0152-8475C1E77738,1.400,-1.035,0.795,0.000,0.000,0.000,-0.472,0.786,-72.708,30.74,-11.54,-70.78,100,27.57
2025-12-11 22:16:02.905,WT901BLE67,90856446-A74E-F462-0152-8475C1E77738,1.400,-1.035,0.795,0.000,0.000,0.000,-0.472,0.786,-72.708,30.74,-11.54,-70.78,100,27.57
2025-12-11 22:16:02.910,WT901BLE67,90856446-A74E-F462-0152-8475C1E77738,1.400,-1.035,0.795,0.000,0.000,0.000,-0.472,0.786,-72.708,30.74,-11.54,-70.78,100,27.57
2025-12-11 22:16:02.915,WT901BLE67,90856446-A74E-F462-0152-8475C1E77738,1.400,-1.035,0.795,0.000,0.000,0.000,-0.472,0.786,-72.708,30.74,-11.54,-70.78,100,27.57
2025-12-11 22:16:02.920,WT901BLE67,90856446-A74E-F462-0152-8475C1E77738,1.400,-1.035,0.795,0.000,0.000,0.000,-0.472,0.786,-72.708,30.74,-11.54,-70.78,100,27.57
2025-12-11 22:16:02.925,WT901BLE67,90856446-A74E-F462-0152-8475C1E77738,1.400,-1.035,0.795,0.000,0.000,0.000,-0.472,0.786,-72.708,30.74,-11.54,-70.78,100,27.57
2025-12-11 22:16:02.928,WT901BLE67,90856446-A74E-F462-0152-8475C1E77738,1.401,-1.034,0.797,0.000,0.000,0.000,-0.472,0.786,-72.708,30.74,-11.54,-70.78,100,27.57
2025-12-11 22:16:02.928,WT901BLE67,90856446-A74E-F462-0152-8475C1E77738,1.400,-1.033,0.796,0.000,0.000,0.000,-0.472,0.786,-72.708,30.74,-11.54,-70.78,100,27.57
2025-12-11 22:16:02.930,WT901BLE67,90856446-A74E-F462-0152-8475C1E77738,1.400,-1.033,0.796,0.000,0.000,0.000,-0.472,0.786,-72.708,30.74,-11.54,-70.78,100,27.57
2025-12-11 22:16:02.935,WT901BLE67,90856446-A74E-F462-0152-8475C1E77738,1.400,-1.033,0.796,0.000,0.000,0.000,-0.472,0.786,-72.708,30.74,-11.54,-70.78,100,27.57
2025-12-11 22:16:02.940,WT901BLE67,90856446-A74E-F462-0152-8475C1E77738,1.400,-1.033,0.796,0.000,0.000,0.000,-0.472,0.786,-72.708,30.74,-11.54,-70.78,100,27.57
2025-12-11 22:16:02.947,WT901BLE67,90856446-A74E-F462-0152-8475C1E77738,1.400,-1.033,0.796,0.000,0.000,0.000,-0.472,0.786,-72.708,30.74,-11.54,-70.78,100,27.57
2025-12-11 22:16:02.950,WT901BLE67,90856446-A74E-F462-0152-8475C1E77738,1.400,-1.033,0.796,0.000,0.000,0.000,-0.472,0.786,-72.708,30.74,-11.54,-70.78,100,27.57
2025-12-11 22:16:02.955,WT901BLE67,90856446-A74E-F462-0152-8475C1E77738,1.400,-1.033,0.796,0.000,0.000,0.000,-0.472,0.786,-72.708,30.74,-11.54,-70.78,100,27.57
2025-12-11 22:16:02.957,WT901BLE67,90856446-A74E-F462-0152-8475C1E77738,1.398,-1.034,0.794,0.000,0.000,0.000,-0.472,0.786,-72.708,30.74,-11.54,-70.78,100,27.57
2025-12-11 22:16:02.957,WT901BLE67,90856446-A74E-F462-0152-8475C1E77738,1.401,-1.033,0.795,0.000,0.000,0.000,-0.472,0.786,-72.708,30.74,-11.54,-70.78,100,27.57
2025-12-11 22:16:02.960,WT901BLE67,90856446-A74E-F462-0152-8475C1E77738,1.401,-1.033,0.795,0.000,0.000,0.000,-0.472,0.786,-72.708,30.74,-11.54,-70.78,100,27.57
2025-12-11 22:16:02.965,WT901BLE67,90856446-A74E-F462-0152-8475C1E77738,1.401,-1.033,0.795,0.000,0.000,0.000,-0.472,0.786,-72.708,30.74,-11.54,-70.78,100,27.57
2025-12-11 22:16:02.970,WT901BLE67,90856446-A74E-F462-0152-8475C1E77738,1.401,-1.033,0.795,0.000,0.000,0.000,-0.472,0.786,-72.708,30.74,-11.54,-70.78,100,27.57
2025-12-11 22:16:02.975,WT901BLE67,90856446-A74E-F462-0152-8475C1E77738,1.401,-1.033,0.795,0.000,0.000,0.000,-0.472,0.786,-72.708,30.74,-11.54,-70.78,100,27.57
2025-12-11 22:16:02.980,WT901BLE67,90856446-A74E-F462-0152-8475C1E77738,1.401,-1.033,0.795,0.000,0.000,0.000,-0.472,0.786,-72.708,30.74,-11.54,-70.78,100,27.57
2025-12-11 22:16:02.985,WT901BLE67,90856446-A74E-F462-0152-8475C1E77738,1.401,-1.033,0.795,0.000,0.000,0.000,-0.472,0.786,-72.708,30.74,-11.54,-70.78,100,27.57
2025-12-11 22:16:02.988,WT901BLE67,90856446-A74E-F462-0152-8475C1E77738,1.400,-1.034,0.795,0.000,0.000,0.000,-0.472,0.786,-72.708,30.74,-11.54,-70.78,100,27.57
2025-12-11 22:16:02.988,WT901BLE67,90856446-A74E-F462-0152-8475C1E77738,1.402,-1.034,0.795,0.000,0.000,0.000,-0.472,0.786,-72.708,30.74,-11.54,-70.78,100,27.57
2025-12-11 22:16:02.990,WT901BLE67,90856446-A74E-F462-0152-8475C1E77738,1.402,-1.034,0.795,0.000,0.000,0.000,-0.472,0.786,-72.708,30.74,-11.54,-70.78,100,27.57
2025-12-11 22:16:02.997,WT901BLE67,90856446-A74E-F462-0152-8475C1E77738,1.402,-1.034,0.795,0.000,0.000,0.000,-0.472,0.786,-72.708,30.74,-11.54,-70.78,100,27.57
2025-12-11 22:16:03.000,WT901BLE67,90856446-A74E-F462-0152-8475C1E77738,1.402,-1.034,0.795,0.000,0.000,0.000,-0.472,0.786,-72.708,30.74,-11.54,-70.78,100,27.57
2025-12-11 22:16:03.005,WT901BLE67,90856446-A74E-F462-0152-8475C1E77738,1.402,-1.034,0.795,0.000,0.000,0.000,-0.472,0.786,-72.708,30.74,-11.54,-70.78,100,27.57
2025-12-11 22:16:03.010,WT901BLE67,90856446-A74E-F462-0152-8475C1E77738,1.402,-1.034,0.795,0.000,0.000,0.000,-0.472,0.786,-72.708,30.74,-11.54,-70.78,100,27.57
2025-12-11 22:16:03.015,WT901BLE67,90856446-A74E-F462-0152-8475C1E77738,1.402,-1.034,0.795,0.000,0.000,0.000,-0.472,0.786,-72.708,30.74,-11.54,-70.78,100,27.57
2025-12-11 22:16:03.020,WT901BLE67,90856446-A74E-F462-0152-8475C1E77738,1.402,-1.034,0.795,0.000,0.000,0.000,-0.472,0.786,-72.708,30.74,-11.54,-70.78,100,27.57
2025-12-11 22:16:03.025,WT901BLE67,90856446-A74E-F462-0152-8475C1E77738,1.402,-1.034,0.795,0.000,0.000,0.000,-0.472,0.786,-72.708,30.74,-11.54,-70.78,100,27.57
2025-12-11 22:16:03.030,WT901BLE67,90856446-A74E-F462-0152-8475C1E77738,1.402,-1.034,0.795,0.000,0.000,0.000,-0.472,0.786,-72.708,30.74,-11.54,-70.78,100,27.57
2025-12-11 22:16:03.035,WT901BLE67,90856446-A74E-F462-0152-8475C1E77738,1.402,-1.034,0.795,0.000,0.000,0.000,-0.472,0.786,-72.708,30.74,-11.54,-70.78,100,27.57
2025-12-11 22:16:03.040,WT901BLE67,90856446-A74E-F462-0152-8475C1E77738,1.402,-1.034,0.795,0.000,0.000,0.000,-0.472,0.786,-72.708,30.74,-11.54,-70.78,100,27.57
2025-12-11 22:16:03.047,WT901BLE67,90856446-A74E-F462-0152-8475C1E77738,1.402,-1.034,0.795,0.000,0.000,0.000,-0.472,0.786,-72.708,30.74,-11.54,-70.78,100,27.57
2025-12-11 22:16:03.049,WT901BLE67,90856446-A74E-F462-0152-8475C1E77738,1.398,-1.034,0.795,0.000,0.000,0.000,-0.472,0.786,-72.708,30.74,-11.54,-70.78,100,27.57
2025-12-11 22:16:03.049,WT901BLE67,90856446-A74E-F462-0152-8475C1E77738,1.400,-1.033,0.795,0.000,0.000,0.000,-0.472,0.786,-72.708,30.74,-11.54,-70.78,100,27.57
2025-12-11 22:16:03.050,WT901BLE67,90856446-A74E-F462-0152-8475C1E77738,1.400,-1.033,0.795,0.000,0.000,0.000,-0.472,0.786,-72.708,30.74,-11.54,-70.78,100,27.57
2025-12-11 22:16:03.055,WT901BLE67,90856446-A74E-F462-0152-8475C1E77738,1.400,-1.033,0.795,0.000,0.000,0.000,-0.472,0.786,-72.708,30.74,-11.54,-70.78,100,27.57
2025-12-11 22:16:03.060,WT901BLE67,90856446-A74E-F462-0152-8475C1E77738,1.400,-1.033,0.795,0.000,0.000,0.000,-0.472,0.786,-72.708,30.74,-11.54,-70.78,100,27.57
2025-12-11 22:16:03.065,WT901BLE67,90856446-A74E-F462-0152-8475C1E77738,1.400,-1.033,0.795,0.000,0.000,0.000,-0.472,0.786,-72.708,30.74,-11.54,-70.78,100,27.57
2025-12-11 22:16:03.071,WT901BLE67,90856446-A74E-F462-0152-8475C1E77738,1.400,-1.033,0.795,0.000,0.000,0.000,-0.472,0.786,-72.708,30.74,-11.54,-70.78,100,27.57
2025-12-11 22:16:03.075,WT901BLE67,90856446-A74E-F462-0152-8475C1E77738,1.400,-1.033,0.795,0.000,0.000,0.000,-0.472,0.786,-72.708,30.74,-11.54,-70.78,100,27.57
2025-12-11 22:16:03.078,WT901BLE67,90856446-A74E-F462-0152-8475C1E77738,1.400,-1.034,0.795,0.000,0.000,0.000,-0.472,0.786,-72.708,30.74,-11.54,-70.78,100,27.57
2025-12-11 22:16:03.078,WT901BLE67,90856446-A74E-F462-0152-8475C1E77738,1.400,-1.032,0.794,0.000,0.000,0.000,-0.472,0.786,-72.708,30.74,-11.54,-70.78,100,27.57
2025-12-11 22:16:03.080,WT901BLE67,90856446-A74E-F462-0152-8475C1E77738,1.400,-1.032,0.794,0.000,0.000,0.000,-0.472,0.786,-72.708,30.74,-11.54,-70.78,100,27.57
2025-12-11 22:16:03.086,WT901BLE67,90856446-A74E-F462-0152-8475C1E77738,1.400,-1.032,0.794,0.000,0.000,0.000,-0.472,0.786,-72.708,30.74,-11.54,-70.78,100,27.57
2025-12-11 22:16:03.090,WT901BLE67,90856446-A74E-F462-0152-8475C1E77738,1.400,-1.032,0.794,0.000,0.000,0.000,-0.472,0.786,-72.708,30.74,-11.54,-70.78,100,27.57
2025-12-11 22:16:03.097,WT901BLE67,90856446-A74E-F462-0152-8475C1E77738,1.400,-1.032,0.794,0.000,0.000,0.000,-0.472,0.786,-72.708,30.74,-11.54,-70.78,100,27.57
2025-12-11 22:16:03.100,WT901BLE67,90856446-A74E-F462-0152-8475C1E77738,1.400,-1.032,0.794,0.000,0.000,0.000,-0.472,0.786,-72.708,30.74,-11.54,-70.78,100,27.57
2025-12-11 22:16:03.105,WT901BLE67,90856446-A74E-F462-0152-8475C1E77738,1.400,-1.032,0.794,0.000,0.000,0.000,-0.472,0.786,-72.708,30.74,-11.54,-70.78,100,27.57
2025-12-11 22:16:03.107,WT901BLE67,90856446-A74E-F462-0152-8475C1E77738,1.401,-1.035,0.797,0.000,0.000,0.000,-0.472,0.786,-72.708,30.74,-11.54,-70.78,100,27.57
2025-12-11 22:16:03.107,WT901BLE67,90856446-A74E-F462-0152-8475C1E77738,1.401,-1.033,0.795,0.000,0.000,0.000,-0.472,0.786,-72.708,30.74,-11.54,-70.78,100,27.57
2025-12-11 22:16:03.111,WT901BLE67,90856446-A74E-F462-0152-8475C1E77738,1.401,-1.033,0.795,0.000,0.000,0.000,-0.472,0.786,-72.708,30.74,-11.54,-70.78,100,27.57
2025-12-11 22:16:03.115,WT901BLE67,90856446-A74E-F462-0152-8475C1E77738,1.401,-1.033,0.795,0.000,0.000,0.000,-0.472,0.786,-72.708,30.74,-11.54,-70.78,100,27.57
2025-12-11 22:16:03.121,WT901BLE67,90856446-A74E-F462-0152-8475C1E77738,1.401,-1.033,0.795,0.000,0.000,0.000,-0.472,0.786,-72.708,30.74,-11.54,-70.78,100,27.57
2025-12-11 22:16:03.125,WT901BLE67,90856446-A74E-F462-0152-8475C1E77738,1.401,-1.033,0.795,0.000,0.000,0.000,-0.472,0.786,-72.708,30.74,-11.54,-70.78,100,27.57
2025-12-11 22:16:03.130,WT901BLE67,90856446-A74E-F462-0152-8475C1E77738,1.401,-1.033,0.795,0.000,0.000,0.000,-0.472,0.786,-72.708,30.74,-11.54,-70.78,100,27.57
2025-12-11 22:16:03.135,WT901BLE67,90856446-A74E-F462-0152-8475C1E77738,1.401,-1.033,0.795,0.000,0.000,0.000,-0.472,0.786,-72.708,30.74,-11.54,-70.78,100,27.57
2025-12-11 22:16:03.140,WT901BLE67,90856446-A74E-F462-0152-8475C1E77738,1.401,-1.033,0.795,0.000,0.000,0.000,-0.472,0.786,-72.708,30.74,-11.54,-70.78,100,27.57
2025-12-11 22:16:03.147,WT901BLE67,90856446-A74E-F462-0152-8475C1E77738,1.401,-1.033,0.795,0.000,0.000,0.000,-0.472,0.786,-72.708,30.74,-11.54,-70.78,100,27.57
2025-12-11 22:16:03.150,WT901BLE67,90856446-A74E-F462-0152-8475C1E77738,1.401,-1.033,0.795,0.000,0.000,0.000,-0.472,0.786,-72.708,30.74,-11.54,-70.78,100,27.57
2025-12-11 22:16:03.155,WT901BLE67,90856446-A74E-F462-0152-8475C1E77738,1.401,-1.033,0.795,0.000,0.000,0.000,-0.472,0.786,-72.708,30.74,-11.54,-70.78,100,27.57
2025-12-11 22:16:03.161,WT901BLE67,90856446-A74E-F462-0152-8475C1E77738,1.401,-1.033,0.795,0.000,0.000,0.000,-0.472,0.786,-72.708,30.74,-11.54,-70.78,100,27.57
2025-12-11 22:16:03.165,WT901BLE67,90856446-A74E-F462-0152-8475C1E77738,1.401,-1.033,0.795,0.000,0.000,0.000,-0.472,0.786,-72.708,30.74,-11.54,-70.78,100,27.57
2025-12-11 22:16:03.168,WT901BLE67,90856446-A74E-F462-0152-8475C1E77738,1.399,-1.032,0.796,0.000,0.000,0.000,-0.472,0.786,-72.708,30.74,-11.54,-70.78,100,27.57
2025-12-11 22:16:03.168,WT901BLE67,90856446-A74E-F462-0152-8475C1E77738,1.401,-1.034,0.796,0.000,0.000,0.000,-0.472,0.786,-72.708,30.74,-11.54,-70.78,100,27.57
2025-12-11 22:16:03.170,WT901BLE67,90856446-A74E-F462-0152-8475C1E77738,1.401,-1.034,0.796,0.000,0.000,0.000,-0.472,0.786,-72.708,30.74,-11.54,-70.78,100,27.57
2025-12-11 22:16:03.175,WT901BLE67,90856446-A74E-F462-0152-8475C1E77738,1.401,-1.034,0.796,0.000,0.000,0.000,-0.472,0.786,-72.708,30.74,-11.54,-70.78,100,27.57
2025-12-11 22:16:03.180,WT901BLE67,90856446-A74E-F462-0152-8475C1E77738,1.401,-1.034,0.796,0.000,0.000,0.000,-0.472,0.786,-72.708,30.74,-11.54,-70.78,100,27.57
2025-12-11 22:16:03.185,WT901BLE67,90856446-A74E-F462-0152-8475C1E77738,1.401,-1.034,0.796,0.000,0.000,0.000,-0.472,0.786,-72.708,30.74,-11.54,-70.78,100,27.57
2025-12-11 22:16:03.190,WT901BLE67,90856446-A74E-F462-0152-8475C1E77738,1.401,-1.034,0.796,0.000,0.000,0.000,-0.472,0.786,-72.708,30.74,-11.54,-70.78,100,27.57
2025-12-11 22:16:03.197,WT901BLE67,90856446-A74E-F462-0152-8475C1E77738,1.401,-1.034,0.796,0.000,0.000,0.000,-0.472,0.786,-72.708,30.74,-11.54,-70.78,100,27.57
2025-12-11 22:16:03.197,WT901BLE67,90856446-A74E-F462-0152-8475C1E77738,1.401,-1.034,0.795,0.000,0.000,0.000,-0.472,0.786,-72.708,30.74,-11.54,-70.78,100,27.57
2025-12-11 22:16:03.197,WT901BLE67,90856446-A74E-F462-0152-8475C1E77738,1.401,-1.032,0.793,0.000,0.000,0.000,-0.472,0.786,-72.708,30.74,-11.54,-70.78,100,27.57
2025-12-11 22:16:03.200,WT901BLE67,90856446-A74E-F462-0152-8475C1E77738,1.401,-1.032,0.793,0.000,0.000,0.000,-0.472,0.786,-72.708,30.74,-11.54,-70.78,100,27.57
2025-12-11 22:16:03.205,WT901BLE67,90856446-A74E-F462-0152-8475C1E77738,1.401,-1.032,0.793,0.000,0.000,0.000,-0.472,0.786,-72.708,30.74,-11.54,-70.78,100,27.57
2025-12-11 22:16:03.211,WT901BLE67,90856446-A74E-F462-0152-8475C1E77738,1.401,-1.032,0.793,0.000,0.000,0.000,-0.472,0.786,-72.708,30.74,-11.54,-70.78,100,27.57
2025-12-11 22:16:03.215,WT901BLE67,90856446-A74E-F462-0152-8475C1E77738,1.401,-1.032,0.793,0.000,0.000,0.000,-0.472,0.786,-72.708,30.74,-11.54,-70.78,100,27.57
2025-12-11 22:16:03.220,WT901BLE67,90856446-A74E-F462-0152-8475C1E77738,1.401,-1.032,0.793,0.000,0.000,0.000,-0.472,0.786,-72.708,30.74,-11.54,-70.78,100,27.57
2025-12-11 22:16:03.225,WT901BLE67,90856446-A74E-F462-0152-8475C1E77738,1.401,-1.032,0.793,0.000,0.000,0.000,-0.472,0.786,-72.708,30.74,-11.54,-70.78,100,27.57
2025-12-11 22:16:03.228,WT901BLE67,90856446-A74E-F462-0152-8475C1E77738,1.401,-1.032,0.795,0.000,0.000,0.000,-0.472,0.786,-72.708,30.74,-11.54,-70.78,100,27.57
2025-12-11 22:16:03.228,WT901BLE67,90856446-A74E-F462-0152-8475C1E77738,1.400,-1.031,0.796,0.000,0.000,0.000,-0.472,0.786,-72.708,30.74,-11.54,-70.78,100,27.57
2025-12-11 22:16:03.230,WT901BLE67,90856446-A74E-F462-0152-8475C1E77738,1.400,-1.031,0.796,0.000,0.000,0.000,-0.472,0.786,-72.708,30.74,-11.54,-70.78,100,27.57
2025-12-11 22:16:03.235,WT901BLE67,90856446-A74E-F462-0152-8475C1E77738,1.400,-1.031,0.796,0.000,0.000,0.000,-0.472,0.786,-72.708,30.74,-11.54,-70.78,100,27.57
2025-12-11 22:16:03.240,WT901BLE67,90856446-A74E-F462-0152-8475C1E77738,1.400,-1.031,0.796,0.000,0.000,0.000,-0.472,0.786,-72.708,30.74,-11.54,-70.78,100,27.57
2025-12-11 22:16:03.247,WT901BLE67,90856446-A74E-F462-0152-8475C1E77738,1.400,-1.031,0.796,0.000,0.000,0.000,-0.472,0.786,-72.708,30.74,-11.54,-70.78,100,27.57
2025-12-11 22:16:03.250,WT901BLE67,90856446-A74E-F462-0152-8475C1E77738,1.400,-1.031,0.796,0.000,0.000,0.000,-0.472,0.786,-72.708,30.74,-11.54,-70.78,100,27.57
2025-12-11 22:16:03.255,WT901BLE67,90856446-A74E-F462-0152-8475C1E77738,1.400,-1.031,0.796,0.000,0.000,0.000,-0.472,0.786,-72.708,30.74,-11.54,-70.78,100,27.57
2025-12-11 22:16:03.261,WT901BLE67,90856446-A74E-F462-0152-8475C1E77738,1.400,-1.031,0.796,0.000,0.000,0.000,-0.472,0.786,-72.708,30.74,-11.54,-70.78,100,27.57
2025-12-11 22:16:03.265,WT901BLE67,90856446-A74E-F462-0152-8475C1E77738,1.400,-1.031,0.796,0.000,0.000,0.000,-0.472,0.786,-72.708,30.74,-11.54,-70.78,100,27.57
2025-12-11 22:16:03.270,WT901BLE67,90856446-A74E-F462-0152-8475C1E77738,1.400,-1.031,0.796,0.000,0.000,0.000,-0.472,0.786,-72.708,30.74,-11.54,-70.78,100,27.57
2025-12-11 22:16:03.275,WT901BLE67,90856446-A74E-F462-0152-8475C1E77738,1.400,-1.031,0.796,0.000,0.000,0.000,-0.472,0.786,-72.708,30.74,-11.54,-70.78,100,27.57
2025-12-11 22:16:03.280,WT901BLE67,90856446-A74E-F462-0152-8475C1E77738,1.400,-1.031,0.796,0.000,0.000,0.000,-0.472,0.786,-72.708,30.74,-11.54,-70.78,100,27.57
2025-12-11 22:16:03.285,WT901BLE67,90856446-A74E-F462-0152-8475C1E77738,1.400,-1.031,0.796,0.000,0.000,0.000,-0.472,0.786,-72.708,30.74,-11.54,-70.78,100,27.57
2025-12-11 22:16:03.288,WT901BLE67,90856446-A74E-F462-0152-8475C1E77738,1.400,-1.033,0.795,0.000,0.000,0.000,-0.472,0.786,-72.708,30.74,-11.54,-70.78,100,27.57
2025-12-11 22:16:03.288,WT901BLE67,90856446-A74E-F462-0152-8475C1E77738,1.400,-1.033,0.795,0.000,0.000,0.000,-0.472,0.786,-72.708,30.74,-11.54,-70.78,100,27.57
2025-12-11 22:16:03.290,WT901BLE67,90856446-A74E-F462-0152-8475C1E77738,1.400,-1.033,0.795,0.000,0.000,0.000,-0.472,0.786,-72.708,30.74,-11.54,-70.78,100,27.57
2025-12-11 22:16:03.297,WT901BLE67,90856446-A74E-F462-0152-8475C1E77738,1.400,-1.033,0.795,0.000,0.000,0.000,-0.472,0.786,-72.708,30.74,-11.54,-70.78,100,27.57
2025-12-11 22:16:03.300,WT901BLE67,90856446-A74E-F462-0152-8475C1E77738,1.400,-1.033,0.795,0.000,0.000,0.000,-0.472,0.786,-72.708,30.74,-11.54,-70.78,100,27.57
2025-12-11 22:16:03.305,WT901BLE67,90856446-A74E-F462-0152-8475C1E77738,1.400,-1.033,0.795,0.000,0.000,0.000,-0.472,0.786,-72.708,30.74,-11.54,-70.78,100,27.57
2025-12-11 22:16:03.310,WT901BLE67,90856446-A74E-F462-0152-8475C1E77738,1.400,-1.033,0.795,0.000,0.000,0.000,-0.472,0.786,-72.708,30.74,-11.54,-70.78,100,27.57
2025-12-11 22:16:03.315,WT901BLE67,90856446-A74E-F462-0152-8475C1E77738,1.400,-1.033,0.795,0.000,0.000,0.000,-0.472,0.786,-72.708,30.74,-11.54,-70.78,100,27.57
2025-12-11 22:16:03.320,WT901BLE67,90856446-A74E-F462-0152-8475C1E77738,1.400,-1.033,0.795,0.000,0.000,0.000,-0.472,0.786,-72.708,30.74,-11.54,-70.78,100,27.57
2025-12-11 22:16:03.323,WT901BLE67,90856446-A74E-F462-0152-8475C1E77738,1.400,-1.033,0.794,0.000,0.000,0.000,-0.472,0.786,-72.708,30.74,-11.54,-70.78,100,27.57
2025-12-11 22:16:03.323,WT901BLE67,90856446-A74E-F462-0152-8475C1E77738,1.400,-1.033,0.796,0.000,0.000,0.000,-0.472,0.786,-72.708,30.74,-11.54,-70.78,100,27.57
2025-12-11 22:16:03.325,WT901BLE67,90856446-A74E-F462-0152-8475C1E77738,1.400,-1.033,0.796,0.000,0.000,0.000,-0.472,0.786,-72.708,30.74,-11.54,-70.78,100,27.57
2025-12-11 22:16:03.330,WT901BLE67,90856446-A74E-F462-0152-8475C1E77738,1.400,-1.033,0.796,0.000,0.000,0.000,-0.472,0.786,-72.708,30.74,-11.54,-70.78,100,27.57
2025-12-11 22:16:03.335,WT901BLE67,90856446-A74E-F462-0152-8475C1E77738,1.400,-1.033,0.796,0.000,0.000,0.000,-0.472,0.786,-72.708,30.74,-11.54,-70.78,100,27.57
2025-12-11 22:16:03.340,WT901BLE67,90856446-A74E-F462-0152-8475C1E77738,1.400,-1.033,0.796,0.000,0.000,0.000,-0.472,0.786,-72.708,30.74,-11.54,-70.78,100,27.57
2025-12-11 22:16:03.347,WT901BLE67,90856446-A74E-F462-0152-8475C1E77738,1.400,-1.033,0.796,0.000,0.000,0.000,-0.472,0.786,-72.708,30.74,-11.54,-70.78,100,27.57
2025-12-11 22:16:03.350,WT901BLE67,90856446-A74E-F462-0152-8475C1E77738,1.400,-1.033,0.796,0.000,0.000,0.000,-0.472,0.786,-72.708,30.74,-11.54,-70.78,100,27.57
2025-12-11 22:16:03.355,WT901BLE67,90856446-A74E-F462-0152-8475C1E77738,1.400,-1.033,0.796,0.000,0.000,0.000,-0.472,0.786,-72.708,30.74,-11.54,-70.78,100,27.57
2025-12-11 22:16:03.361,WT901BLE67,90856446-A74E-F462-0152-8475C1E77738,1.400,-1.033,0.796,0.000,0.000,0.000,-0.472,0.786,-72.708,30.74,-11.54,-70.78,100,27.57
2025-12-11 22:16:03.365,WT901BLE67,90856446-A74E-F462-0152-8475C1E77738,1.400,-1.033,0.796,0.000,0.000,0.000,-0.472,0.786,-72.708,30.74,-11.54,-70.78,100,27.57
2025-12-11 22:16:03.370,WT901BLE67,90856446-A74E-F462-0152-8475C1E77738,1.400,-1.033,0.796,0.000,0.000,0.000,-0.472,0.786,-72.708,30.74,-11.54,-70.78,100,27.57
2025-12-11 22:16:03.375,WT901BLE67,90856446-A74E-F462-0152-8475C1E77738,1.400,-1.033,0.796,0.000,0.000,0.000,-0.472,0.786,-72.708,30.74,-11.54,-70.78,100,27.57
2025-12-11 22:16:03.378,WT901BLE67,90856446-A74E-F462-0152-8475C1E77738,1.399,-1.034,0.796,0.000,0.000,0.000,-0.472,0.786,-72.708,30.74,-11.54,-70.78,100,27.57
2025-12-11 22:16:03.378,WT901BLE67,90856446-A74E-F462-0152-8475C1E77738,1.400,-1.033,0.796,0.000,0.000,0.000,-0.472,0.786,-72.708,30.74,-11.54,-70.78,100,27.57
2025-12-11 22:16:03.380,WT901BLE67,90856446-A74E-F462-0152-8475C1E77738,1.400,-1.033,0.796,0.000,0.000,0.000,-0.472,0.786,-72.708,30.74,-11.54,-70.78,100,27.57
2025-12-11 22:16:03.385,WT901BLE67,90856446-A74E-F462-0152-8475C1E77738,1.400,-1.033,0.796,0.000,0.000,0.000,-0.472,0.786,-72.708,30.74,-11.54,-70.78,100,27.57
2025-12-11 22:16:03.390,WT901BLE67,90856446-A74E-F462-0152-8475C1E77738,1.400,-1.033,0.796,0.000,0.000,0.000,-0.472,0.786,-72.708,30.74,-11.54,-70.78,100,27.57
2025-12-11 22:16:03.397,WT901BLE67,90856446-A74E-F462-0152-8475C1E77738,1.400,-1.033,0.796,0.000,0.000,0.000,-0.472,0.786,-72.708,30.74,-11.54,-70.78,100,27.57
2025-12-11 22:16:03.400,WT901BLE67,90856446-A74E-F462-0152-8475C1E77738,1.400,-1.033,0.796,0.000,0.000,0.000,-0.472,0.786,-72.708,30.74,-11.54,-70.78,100,27.57
2025-12-11 22:16:03.405,WT901BLE67,90856446-A74E-F462-0152-8475C1E77738,1.400,-1.033,0.796,0.000,0.000,0.000,-0.472,0.786,-72.708,30.74,-11.54,-70.78,100,27.57
2025-12-11 22:16:03.407,WT901BLE67,90856446-A74E-F462-0152-8475C1E77738,1.401,-1.034,0.797,0.000,0.000,0.000,-0.472,0.786,-72.708,30.74,-11.54,-70.78,100,27.57
2025-12-11 22:16:03.407,WT901BLE67,90856446-A74E-F462-0152-8475C1E77738,1.400,-1.032,0.796,0.000,0.000,0.000,-0.472,0.786,-72.708,30.74,-11.54,-70.78,100,27.57
2025-12-11 22:16:03.411,WT901BLE67,90856446-A74E-F462-0152-8475C1E77738,1.400,-1.032,0.796,0.000,0.000,0.000,-0.472,0.786,-72.708,30.74,-11.54,-70.78,100,27.57
2025-12-11 22:16:03.415,WT901BLE67,90856446-A74E-F462-0152-8475C1E77738,1.400,-1.032,0.796,0.000,0.000,0.000,-0.472,0.786,-72.708,30.74,-11.54,-70.78,100,27.57
2025-12-11 22:16:03.420,WT901BLE67,90856446-A74E-F462-0152-8475C1E77738,1.400,-1.032,0.796,0.000,0.000,0.000,-0.472,0.786,-72.708,30.74,-11.54,-70.78,100,27.57
2025-12-11 22:16:03.425,WT901BLE67,90856446-A74E-F462-0152-8475C1E77738,1.400,-1.032,0.796,0.000,0.000,0.000,-0.472,0.786,-72.708,30.74,-11.54,-70.78,100,27.57
2025-12-11 22:16:03.430,WT901BLE67,90856446-A74E-F462-0152-8475C1E77738,1.400,-1.032,0.796,0.000,0.000,0.000,-0.472,0.786,-72.708,30.74,-11.54,-70.78,100,27.57
2025-12-11 22:16:03.435,WT901BLE67,90856446-A74E-F462-0152-8475C1E77738,1.400,-1.032,0.796,0.000,0.000,0.000,-0.472,0.786,-72.708,30.74,-11.54,-70.78,100,27.57
2025-12-11 22:16:03.438,WT901BLE67,90856446-A74E-F462-0152-8475C1E77738,1.402,-1.034,0.795,0.000,0.000,0.000,-0.472,0.786,-72.708,30.74,-11.54,-70.78,100,27.57
2025-12-11 22:16:03.438,WT901BLE67,90856446-A74E-F462-0152-8475C1E77738,1.399,-1.034,0.796,0.000,0.000,0.000,-0.472,0.786,-72.708,30.74,-11.54,-70.78,100,27.57
2025-12-11 22:16:03.440,WT901BLE67,90856446-A74E-F462-0152-8475C1E77738,1.399,-1.034,0.796,0.000,0.000,0.000,-0.472,0.786,-72.708,30.74,-11.54,-70.78,100,27.57
2025-12-11 22:16:03.447,WT901BLE67,90856446-A74E-F462-0152-8475C1E77738,1.399,-1.034,0.796,0.000,0.000,0.000,-0.472,0.786,-72.708,30.74,-11.54,-70.78,100,27.57
2025-12-11 22:16:03.450,WT901BLE67,90856446-A74E-F462-0152-8475C1E77738,1.399,-1.034,0.796,0.000,0.000,0.000,-0.472,0.786,-72.708,30.74,-11.54,-70.78,100,27.57
2025-12-11 22:16:03.455,WT901BLE67,90856446-A74E-F462-0152-8475C1E77738,1.399,-1.034,0.796,0.000,0.000,0.000,-0.472,0.786,-72.708,30.74,-11.54,-70.78,100,27.57
2025-12-11 22:16:03.460,WT901BLE67,90856446-A74E-F462-0152-8475C1E77738,1.399,-1.034,0.796,0.000,0.000,0.000,-0.472,0.786,-72.708,30.74,-11.54,-70.78,100,27.57
2025-12-11 22:16:03.465,WT901BLE67,90856446-A74E-F462-0152-8475C1E77738,1.399,-1.034,0.796,0.000,0.000,0.000,-0.472,0.786,-72.708,30.74,-11.54,-70.78,100,27.57
2025-12-11 22:16:03.470,WT901BLE67,90856446-A74E-F462-0152-8475C1E77738,1.399,-1.034,0.796,0.000,0.000,0.000,-0.472,0.786,-72.708,30.74,-11.54,-70.78,100,27.57
2025-12-11 22:16:03.475,WT901BLE67,90856446-A74E-F462-0152-8475C1E77738,1.399,-1.034,0.796,0.000,0.000,0.000,-0.472,0.786,-72.708,30.74,-11.54,-70.78,100,27.57
2025-12-11 22:16:03.480,WT901BLE67,90856446-A74E-F462-0152-8475C1E77738,1.399,-1.034,0.796,0.000,0.000,0.000,-0.472,0.786,-72.708,30.74,-11.54,-70.78,100,27.57
2025-12-11 22:16:03.485,WT901BLE67,90856446-A74E-F462-0152-8475C1E77738,1.399,-1.034,0.796,0.000,0.000,0.000,-0.472,0.786,-72.708,30.74,-11.54,-70.78,100,27.57
2025-12-11 22:16:03.490,WT901BLE67,90856446-A74E-F462-0152-8475C1E77738,1.399,-1.034,0.796,0.000,0.000,0.000,-0.472,0.786,-72.708,30.74,-11.54,-70.78,100,27.57
2025-12-11 22:16:03.497,WT901BLE67,90856446-A74E-F462-0152-8475C1E77738,1.399,-1.034,0.796,0.000,0.000,0.000,-0.472,0.786,-72.708,30.74,-11.54,-70.78,100,27.57
2025-12-11 22:16:03.499,WT901BLE67,90856446-A74E-F462-0152-8475C1E77738,1.400,-1.033,0.796,0.000,0.000,0.000,-0.472,0.786,-72.708,30.74,-11.54,-70.78,100,27.57
2025-12-11 22:16:03.499,WT901BLE67,90856446-A74E-F462-0152-8475C1E77738,1.401,-1.035,0.796,0.000,0.000,0.000,-0.472,0.786,-72.708,30.74,-11.54,-70.78,100,27.57
2025-12-11 22:16:03.500,WT901BLE67,90856446-A74E-F462-0152-8475C1E77738,1.401,-1.035,0.796,0.000,0.000,0.000,-0.472,0.786,-72.708,30.74,-11.54,-70.78,100,27.57
2025-12-11 22:16:03.505,WT901BLE67,90856446-A74E-F462-0152-8475C1E77738,1.401,-1.035,0.796,0.000,0.000,0.000,-0.472,0.786,-72.708,30.74,-11.54,-70.78,100,27.57
2025-12-11 22:16:03.511,WT901BLE67,90856446-A74E-F462-0152-8475C1E77738,1.401,-1.035,0.796,0.000,0.000,0.000,-0.472,0.786,-72.708,30.74,-11.54,-70.78,100,27.57
2025-12-11 22:16:03.515,WT901BLE67,90856446-A74E-F462-0152-8475C1E77738,1.401,-1.035,0.796,0.000,0.000,0.000,-0.472,0.786,-72.708,30.74,-11.54,-70.78,100,27.57
2025-12-11 22:16:03.520,WT901BLE67,90856446-A74E-F462-0152-8475C1E77738,1.401,-1.035,0.796,0.000,0.000,0.000,-0.472,0.786,-72.708,30.74,-11.54,-70.78,100,27.57
2025-12-11 22:16:03.525,WT901BLE67,90856446-A74E-F462-0152-8475C1E77738,1.401,-1.035,0.796,0.000,0.000,0.000,-0.472,0.786,-72.708,30.74,-11.54,-70.78,100,27.57
2025-12-11 22:16:03.528,WT901BLE67,90856446-A74E-F462-0152-8475C1E77738,1.399,-1.034,0.794,0.000,0.000,0.000,-0.472,0.786,-72.708,30.74,-11.54,-70.78,100,27.57
2025-12-11 22:16:03.528,WT901BLE67,90856446-A74E-F462-0152-8475C1E77738,1.400,-1.034,0.796,0.000,0.000,0.000,-0.472,0.786,-72.708,30.74,-11.54,-70.78,100,27.57
2025-12-11 22:16:03.530,WT901BLE67,90856446-A74E-F462-0152-8475C1E77738,1.400,-1.034,0.796,0.000,0.000,0.000,-0.472,0.786,-72.708,30.74,-11.54,-70.78,100,27.57
2025-12-11 22:16:03.535,WT901BLE67,90856446-A74E-F462-0152-8475C1E77738,1.400,-1.034,0.796,0.000,0.000,0.000,-0.472,0.786,-72.708,30.74,-11.54,-70.78,100,27.57
2025-12-11 22:16:03.540,WT901BLE67,90856446-A74E-F462-0152-8475C1E77738,1.400,-1.034,0.796,0.000,0.000,0.000,-0.472,0.786,-72.708,30.74,-11.54,-70.78,100,27.57
2025-12-11 22:16:03.547,WT901BLE67,90856446-A74E-F462-0152-8475C1E77738,1.400,-1.034,0.796,0.000,0.000,0.000,-0.472,0.786,-72.708,30.74,-11.54,-70.78,100,27.57
2025-12-11 22:16:03.550,WT901BLE67,90856446-A74E-F462-0152-8475C1E77738,1.400,-1.034,0.796,0.000,0.000,0.000,-0.472,0.786,-72.708,30.74,-11.54,-70.78,100,27.57
2025-12-11 22:16:03.555,WT901BLE67,90856446-A74E-F462-0152-8475C1E77738,1.400,-1.034,0.796,0.000,0.000,0.000,-0.472,0.786,-72.708,30.74,-11.54,-70.78,100,27.57
2025-12-11 22:16:03.557,WT901BLE67,90856446-A74E-F462-0152-8475C1E77738,1.399,-1.032,0.795,0.000,0.000,0.000,-0.472,0.786,-72.708,30.74,-11.54,-70.78,100,27.57
2025-12-11 22:16:03.557,WT901BLE67,90856446-A74E-F462-0152-8475C1E77738,1.402,-1.033,0.795,0.000,0.000,0.000,-0.472,0.786,-72.708,30.74,-11.54,-70.78,100,27.57
2025-12-11 22:16:03.561,WT901BLE67,90856446-A74E-F462-0152-8475C1E77738,1.402,-1.033,0.795,0.000,0.000,0.000,-0.472,0.786,-72.708,30.74,-11.54,-70.78,100,27.57
2025-12-11 22:16:03.565,WT901BLE67,90856446-A74E-F462-0152-8475C1E77738,1.402,-1.033,0.795,0.000,0.000,0.000,-0.472,0.786,-72.708,30.74,-11.54,-70.78,100,27.57
2025-12-11 22:16:03.570,WT901BLE67,90856446-A74E-F462-0152-8475C1E77738,1.402,-1.033,0.795,0.000,0.000,0.000,-0.472,0.786,-72.708,30.74,-11.54,-70.78,100,27.57
2025-12-11 22:16:03.575,WT901BLE67,90856446-A74E-F462-0152-8475C1E77738,1.402,-1.033,0.795,0.000,0.000,0.000,-0.472,0.786,-72.708,30.74,-11.54,-70.78,100,27.57
2025-12-11 22:16:03.580,WT901BLE67,90856446-A74E-F462-0152-8475C1E77738,1.402,-1.033,0.795,0.000,0.000,0.000,-0.472,0.786,-72.708,30.74,-11.54,-70.78,100,27.57
2025-12-11 22:16:03.585,WT901BLE67,90856446-A74E-F462-0152-8475C1E77738,1.402,-1.033,0.795,0.000,0.000,0.000,-0.472,0.786,-72.708,30.74,-11.54,-70.78,100,27.57
2025-12-11 22:16:03.590,WT901BLE67,90856446-A74E-F462-0152-8475C1E77738,1.402,-1.033,0.795,0.000,0.000,0.000,-0.472,0.786,-72.708,30.74,-11.54,-70.78,100,27.57
2025-12-11 22:16:03.597,WT901BLE67,90856446-A74E-F462-0152-8475C1E77738,1.402,-1.033,0.795,0.000,0.000,0.000,-0.472,0.786,-72.708,30.74,-11.54,-70.78,100,27.57
2025-12-11 22:16:03.600,WT901BLE67,90856446-A74E-F462-0152-8475C1E77738,1.402,-1.033,0.795,0.000,0.000,0.000,-0.472,0.786,-72.708,30.74,-11.54,-70.78,100,27.57
2025-12-11 22:16:03.605,WT901BLE67,90856446-A74E-F462-0152-8475C1E77738,1.402,-1.033,0.795,0.000,0.000,0.000,-0.472,0.786,-72.708,30.74,-11.54,-70.78,100,27.57
